label,TYPE_ACCELEROMETER_X(Mean),TYPE_ACCELEROMETER_Y(Mean),TYPE_ACCELEROMETER_Z(Mean),TYPE_GYROSCOPE_X(Mean),TYPE_GYROSCOPE_Y(Mean),TYPE_GYROSCOPE_Z(Mean),TYPE_ACCELEROMETER_X(S.D),TYPE_ACCELEROMETER_Y(S.D),TYPE_ACCELEROMETER_Z(S.D),TYPE_GYROSCOPE_X(S.D),TYPE_GYROSCOPE_Y(S.D),TYPE_GYROSCOPE_Z(S.D),TYPE_ACCELEROMETER_X(varience),TYPE_ACCELEROMETER_Y(varience),TYPE_ACCELEROMETER_Z(varience),TYPE_GYROSCOPE_X(varience),TYPE_GYROSCOPE_Y(varience),TYPE_GYROSCOPE_Z(varience)
walking,-3.38305603342,8.967357826,-1.84352844245,0.031220714681818,0.128708039848485,-0.262495408424242,2.19511268065321,3.06776112514952,2.34562695411093,0.790211029544645,0.741572499508578,1.06116609735501,4.81851968076452,9.41115832097865,5.50196580785172,0.624433471214008,0.5499297720274,1.12607348617567
walking,-2.33183654476,9.208679831,-0.67543273942,0.107914728865,0.04497222736,-0.1696746873,2.202583439697,3.82771054838387,2.34053391144084,1.0175156613021,0.803526078723568,1.25368580462907,4.85137380882745,14.6513680422092,5.47809899060454,1.03533812099505,0.645654159188874,1.57172809672844
walking,-2.42828919378,9.681558383,-0.60802062227,0.04846343834,-0.153152465496,-0.0072036776,2.65536365740283,3.62142457027831,2.54932192229248,1.06751836649129,0.921102294019027,1.33363923485357,7.05095615305572,13.1147159182154,6.49904226348105,1.13959546279622,0.848429436047114,1.77859360874082
walking,-2.86180238554,9.8697862,-1.02432372454,-0.09057311785,-0.172933956386,0.13245239325,3.37690837553395,4.00354864621788,3.12433592685738,1.05562042714233,1.02548481017947,1.27877405067066,11.4035101767514,16.028401762633,9.76147498385177,1.11433448620016,1.05161909590883,1.63526307266866
walking,-2.81057679826,9.0163517399,-1.23651002004,-0.21539306601,-0.18003692618,0.18906250035,3.29751343142306,4.68491480984564,3.22859210393838,0.963430070658502,1.09161598157741,1.24597532838536,10.8735948304155,21.948426775511,10.4238069736132,0.928197501049045,1.19162545123522,1.55245451894499
walking,-2.75113892556,8.7683170949,-1.47985534765,-0.10945739531,-0.12834015189,0.0436172502,3.15147656876717,4.85858099796362,3.29501906822881,1.09585874030082,1.12727825728684,1.37037314459335,9.93180456348847,23.6058093137732,10.8571506599914,1.2009063786937,1.27075626935166,1.87792255542267
walking,-2.54485596134,9.113679225,-1.51015745267,0.01110077049,-0.01989440897,-0.14925231794,3.42625025823288,4.80132281266935,3.36026340460402,1.21337995360683,1.25446081666095,1.45678283860541,11.7391908320409,23.0527007514591,11.291370148321,1.47229091181491,1.57367194053767,2.12221623885525
walking,-2.5734204170848,9.3282934535,-1.38552122411,0.09802398381,0.03781585878,-0.17210999014,3.59186647819443,4.75116339276311,3.41885430135155,1.20262578763225,1.24718671342879,1.45622565807957,12.9015047971768,22.5735535847323,11.68856473387,1.44630878507809,1.55547469815331,2.12059316724927
walking,-2.5283599888548,9.3817089435,-1.55564634996,0.131039429135,0.11012726141,-0.1587799073,3.59956873941909,4.99642229503658,3.49721712887813,1.23482449754078,1.09661088679733,1.39630707468675,12.9568951098031,24.9642357503386,12.2305276465186,1.52479153972683,1.20255543704242,1.94967344682027
walking,-2.60443664785,9.219224828,-1.4661205937,0.063160706605,0.11414337585,-0.13279265957,3.39982011523084,4.94444775958722,3.52184830659529,1.26908580559648,1.16088684185038,1.38152100817712,11.5587768159282,24.447563647287,12.4034154946681,1.61057878196646,1.34765825958134,1.90860029603471
walking,-2.23997804109,8.9223747303,-0.84986632838,0.07761230263,-0.02225494134,-0.08909606762,3.11666687904576,4.72702684741652,2.98024049932231,1.22679776543073,1.26347712310619,1.40104895576887,9.71361243494085,22.3447828161966,8.88183343380089,1.50503275726584,1.59637444061269,1.96293817646103
walking,-2.13628908532,9.3609343273,-0.928275758533,0.12284698638,-0.10160522435,-0.0378799395,3.11960006429852,4.5902884176391,3.21047548247789,1.22713473584669,1.26312339098458,1.40795119834724,9.7319045611713,21.0707477571117,10.3071528235916,1.50585965992152,1.59548070085239,1.98232657692742
walking,-2.61460085406,9.908247093,-1.349030158088,0.0191970862,-0.158525085753,0.05444793885,3.29041282143353,4.40224378754682,3.7617053922711,1.31517622287192,1.27165636629582,1.36356360195517,10.8268165354541,19.3797503649946,14.1504274582415,1.72968849720766,1.61710991394069,1.85930569657695
walking,-2.48458497893,9.449597163,-1.323536390805,-0.15635833338,-0.180923463113,0.10854797094,3.39567696490013,4.6908323444231,3.70704677968056,1.24346050734276,1.29561288999633,1.31745595242195,11.5306220499534,22.003908083486,13.74219582674,1.54619403332111,1.67861276072464,1.73569018657202
walking,-2.40234314994,8.861621685,-1.3349383557,-0.21228485099,-0.16600189303,0.13444976849,3.30665778775866,4.80669428553326,3.86527815752531,1.12367965281618,1.32015265340519,1.34328534737328,10.933985725345,23.1043099545781,14.9403752350423,1.26265596215308,1.74280302829277,1.80441552446776
walking,-2.2187451161,8.8103187409,-1.47983153375,-0.11039734256,-0.125648499835,0.04495239485,3.44912489497998,5.08819031437808,4.04094454211951,1.25285043725636,1.40174083604434,1.41449959233133,11.8964625411707,25.8896806753309,16.3292327924855,1.56963421813344,1.96487737143428,2.00080909670549
walking,-2.04888183694,8.9586099384,-1.60334899545,0.0265670769,-0.028460696295,-0.089833067767,3.36474580546129,5.25606508341292,4.02153945893502,1.38298151116498,1.38296263278671,1.43958077156877,11.3215143353693,27.6262201610725,16.1727796197713,1.91263786022418,1.91258564368436,2.07239279787053
walking,-2.12336365104,9.0562230252,-1.64814757372,0.068939208242,-0.03475189127,-0.169866944467,3.21492456411137,5.23148724027603,3.95299621417776,1.38166777116536,1.32261163967517,1.41528262757217,10.3357399529267,27.3684587451709,15.6261790693037,1.90900582987705,1.74930154940424,2.00302491590758
walking,-2.1727325271,9.1813888571,-1.58704345772,0.089447020642,-0.00863647395,-0.17306061086,3.36034235301822,5.44460664713721,4.15253384856634,1.38518000586037,1.39747649575652,1.42650040489197,11.291900729488,29.6437415420507,17.2435373634891,1.91872364863533,1.95294055619193,2.03490340515696
walking,-2.243143915,9.2690876541,-1.60746705429,0.10919647444,0.01767120341,-0.1379943894,3.3970129127395,5.46506080162937,4.40939249191923,1.39711457916139,1.42401596878059,1.41124113760015,11.5396967293189,29.8668895655058,19.4427421477937,1.95192914730531,2.02782147934213,1.99160154845497
walking,-2.2183404684,9.1298776303,-1.76438110789,0.13554687564,0.04748230216,-0.16697235131,3.46828638187772,5.3696307112151,4.38809042835674,1.32842707229463,1.38934203571208,1.3874418437149,12.0290104267184,28.8329339748243,19.2553376074361,1.76471848640527,1.93027129219658,1.92499486969099
walking,-2.036146856368,9.0641258312,-1.66271544396,0.11397094618,0.00538787996,-0.12341460727,3.32295434975322,5.36491944285493,4.28778440425505,1.36838501878689,1.36591557983753,1.46377064434561,11.0420256105438,28.7823606283229,18.3850950973728,1.87247755964041,1.86572537124288,2.14262449924797
walking,-2.148905026446,9.1617269912,-1.4171087619,-0.00337219215,-0.01110381969,-0.06528778,3.00774930246202,5.11168145655802,4.11144702363595,1.46475904117029,1.39598088799753,1.50222675078851,9.04655586646077,26.1292873133191,16.9039966281649,2.14551904869011,1.94876263965437,2.25668521078461
walking,-2.007177728028,9.0073063762,-0.959625248503,-0.00021057495,-0.09036865066,-0.0626708999,2.84626804365435,4.65491139355766,3.40216287019651,1.41618657059955,1.44187156676913,1.42874201835602,8.10124177632797,21.6682000818729,11.5747121953438,2.00558440274653,2.07899361505726,2.04130375501604
walking,-1.89465759374,9.1710223163,-0.968884870553,0.1053619375,-0.11208343286,-0.087002564,3.08740583523565,4.92977830402166,3.54360298453193,1.37101852242212,1.49947971589143,1.38158200129816,9.53207479144715,24.3027141268026,12.5571221119836,1.87969178882453,2.24843941836986,1.90876882631103
walking,-2.17958803329,9.7402285397,-1.37238157472,0.04972382032,-0.14785461494,-0.0387451159,3.24095925975178,5.12739445722792,4.17790446763705,1.42743491789748,1.47828024624375,1.3695178211404,10.5038169233708,26.2901739200116,17.4548857407016,2.03757044483298,2.18531248643448,1.87557906242114
walking,-2.11234254648,9.7474232538,-1.49475646606,-0.075042724503,-0.21689758224,0.08817902145,3.17560326482958,5.04784416033031,4.2358679488043,1.44407831611438,1.386661038148,1.34774774004791,10.0844560955963,25.4807306669809,17.9425772797076,2.08536218307175,1.92282883471769,1.81642397080424
walking,-2.07387573948,8.9611688298,-1.55029053755,-0.146617127023,-0.213821407613,0.14798279515,3.0932841722712,4.91439150117714,4.3864743220991,1.33228430561071,1.42026509302364,1.33905348165217,9.56840697042354,24.1512438268421,19.2411569784347,1.77498147097662,2.01715293446146,1.79306422672479
walking,-1.9515722558,8.7671149907,-1.42346436342,-0.14924468894,-0.176640321073,0.0997467092,3.30606242955827,4.96544543687462,4.39688635923729,1.30469260373844,1.47302759518248,1.39818215464155,10.9300487881367,24.655648386579,19.3326096560469,1.70222279024979,2.16981029616908,1.95491333755808
walking,-1.6450042621168,8.96898833144,-1.497446282735,-0.044110109,-0.10755463075,0.028118901,3.44179845868736,5.39272733327006,4.3818190211072,1.50188310724363,1.52157334471517,1.45686885495034,11.8459766302227,29.081508090998,19.2003379337369,2.25565286782377,2.3151854433477,2.1224668605243
walking,-1.5417199729568,8.94368501458,-1.632216949618,0.02279662994,-0.09631805416,-0.0648818931,3.26028676131798,5.45434507485643,4.41219609878704,1.55438605810465,1.53297964394492,1.43482654655564,10.6294697660253,29.7498801956105,19.4674744141516,2.41611601763012,2.35002658874948,2.05872721870079
walking,-1.58904174244,9.15486557714,-1.723218535693,0.07184448508,0.01477661287,-0.14311065477,3.31224022077676,5.47484071949164,4.35782099844016,1.53725589578462,1.5145948521329,1.41421017401639,10.9709352801313,29.9738809038038,18.990603854446,2.36315568912458,2.29399756610749,1.99999041629147
walking,-1.807750250276,9.4910275123,-1.65424133711,0.07437591886,0.25843505712,-0.203042601606,3.44177387997796,5.16726724947282,4.16913262776249,1.4462909279451,1.57738587721128,1.44914200011854,11.8458074408986,26.7006508274744,17.3816668678738,2.09175744825631,2.48814620562559,2.10001253650757
walking,-1.916199958276,9.7622469864,-1.45833679896,0.0371307411,0.57242889254,-0.330094912666,4.01127582526707,5.16873685937667,4.23578808882532,1.34042905692015,1.62817089065124,1.5205785165368,16.090333746372,26.715840721479,17.9419007334345,1.79675005663585,2.65094044916407,2.31215902495326
walking,-1.591755364,9.50436950153,-1.636840820425,0.03513336408,0.53123168645,-0.34753723073,3.95000970162209,5.85755971882548,4.23377179182794,1.43156645875195,1.49365600744843,1.48001681270756,15.6025766429086,34.3110058596068,17.9248235852779,2.04938252582359,2.23100826858679,2.19044976589706
walking,-1.36769103663,9.10713318033,-1.578331299565,0.03893585326,0.20213470089,-0.2106048518,3.45171662098038,5.99050293063792,4.14427786469636,1.53083398968154,1.39720420781156,1.43545729742554,11.9143476315522,35.8861253619815,17.1750390198122,2.34345270396429,1.95217959832633,2.06053765273223
walking,-1.67661559951,9.1095195067,-1.47016724928,0.028137211305,0.0081863395,-0.0805511442,3.27200112501063,5.68397705019106,4.35031576572578,1.57635833250433,1.45739631592249,1.43883358342494,10.7059913620708,32.3075951070986,18.9252472615223,2.48490559245583,2.12400402166446,2.07024208079145
walking,-1.54895629982,9.2060138055,-1.02370484188,0.001316835245,-0.120906064594,-0.039257808,2.95424233973098,5.11867144179174,3.68712257611009,1.48464278706247,1.46106758757527,1.37977450378274,8.72754780185919,26.2007973290143,13.5948728912607,2.20416420517663,2.13471849546301,1.90377768128892
walking,-1.37561768111,9.2707658615,-0.7338470339,0.11785888574,-0.145761103927,-0.0667297305,3.30416607501808,5.1626873172961,3.54211303972545,1.44003714344636,1.45794901120449,1.36163898680359,10.9175134513004,26.65334033617,12.5465647861931,2.07370697450516,2.12561531927214,1.8540607303835
walking,-1.79170653815,9.607225357,-1.1882836957,0.121084597,-0.160372922223,-0.0293243345,3.45530211699783,5.26351127488626,4.40212018785937,1.52222512057425,1.44480307393572,1.37395377243173,11.9391127197297,27.7045509408547,19.378662148359,2.31716931770729,2.08745592245409,1.88774896877938
walking,-1.74074279918,9.7848724355,-1.46604921292,-0.0190841677,-0.23550415109,0.0335235601,3.39244489089761,5.17842350129228,4.41415096643121,1.53143490040663,1.45876144366266,1.36059821727854,11.5086823377773,26.8160699587362,19.4847287544455,2.34529285418348,2.12798494951675,1.85122750886153
walking,-1.4929461679,9.51846132,-1.58637695958,-0.09210052903,-0.16980438354,0.0736526421,3.32276039208837,5.25124045704463,4.33866358609734,1.4650185140712,1.46343978030974,1.2899213954539,11.0407366232313,27.5755263377023,18.824001713327,2.14627924657138,2.14165599059302,1.66389720644972
walking,-1.63879150024,8.9526887668,-1.46559692386,-0.17891693123,-0.18238678446734,0.10381622113,2.9830870565657,5.15011286915414,4.24233205076801,1.38362017910253,1.31339536103692,1.24452491871534,8.89880838704983,26.5236625650271,17.9973812289735,1.91440480001972,1.72500737439331,1.54884227330342
walking,-1.60022949044,8.6833259674,-1.57806945648,-0.161880489074,-0.16617279502734,0.03600158527,3.04170092291947,5.2194683109925,4.1457491261648,1.38956657561552,1.36169280523286,1.29520316485743,9.25194450448915,27.2428494494549,17.1872358170962,1.93089526806783,1.85420729582293,1.6775512382567
walking,-1.40144469589,8.9732135012,-1.62360596165,0.010160830296,-0.08149261324,-0.10513916246,3.30915245047401,5.41207249709908,4.15705965849695,1.50516041695901,1.55776560935012,1.31965443923105,10.9504899404781,29.2905287138562,17.2811450043028,2.26550788078021,2.42663369367395,1.74148783898223
walking,-1.449052128135,9.3262284708,-1.47009583527,0.10269164854,-0.03246612336,-0.19811859388,3.41288511324482,5.44778002068966,4.14952116782046,1.53949626979049,1.48043398013739,1.31476761450144,11.6477847962081,29.6783071538254,17.2185259221901,2.37004876469883,2.19168476954543,1.72861388014181
walking,-1.564714364045,9.4287510564,-1.59456542766,0.11068115335,-0.026954651704,-0.15306549133,3.24800075510135,5.33233988570301,4.27543546287488,1.53363461941061,1.4521974348678,1.3374239207743,10.5495089051389,28.4338486566592,18.2793483972081,2.35203514585473,2.10887738983662,1.78870274385929
walking,-1.50672850929,9.3123925635,-1.69737364976,0.16013489028,0.013665772836,-0.17039031375,3.18119870956407,5.32573450109579,4.19657517868407,1.49910897905454,1.40562277913835,1.31568036105489,10.1200252297321,28.363447976162,17.6112432303472,2.24732773108195,1.97577539723262,1.73101481246552
walking,-1.42617674482,9.3055073508,-1.67130858774,0.1356109604,0.05132751497,-0.1784545855,2.96572968588267,5.20797808357833,4.00352201177497,1.51309335645055,1.26638628313354,1.28421747573061,8.79555256972574,27.1230357190322,16.0281884987667,2.2894515053348,1.60373421810879,1.64921452497191
walking,-1.55988220273,9.4296675306,-1.23996154484,0.00940246411,-0.04346771493,-0.0402725251,2.62586546215309,4.98126294041334,3.68088535545297,1.53130329575619,1.39403165196873,1.32899978638304,6.89516942532845,24.8129804815354,13.5489169999882,2.34488978359376,1.94332424669066,1.76624043220616
walking,-1.4845672653,9.24218353766,-0.83598876931,0.08822936947,-0.0825500455,-0.0633010881,2.82090006081103,4.99713356767902,3.41271745976461,1.44023165639074,1.49085157384644,1.35097713963564,7.95747715308365,24.9713438932245,11.6466404601822,2.07426722407003,2.2226384152404,1.8251392318181
walking,-1.51686889857,9.45591109614,-1.03374999711,0.13312225416,-0.11324767596,-0.084439082,3.25513863679747,5.27349073708314,4.03074170215383,1.4688357691737,1.46837942234112,1.35164973273486,10.5959275447717,27.8097045541017,16.2468786694819,2.15747851680409,2.15613812795484,1.82695700000221
walking,-1.65016968163,9.78871674488,-1.53648436312,-0.02063293417,-0.16539306604,-0.01067504463,3.31911398413048,5.16167069825158,4.53296197516851,1.50763361057776,1.45661522847335,1.37934774465344,11.0165176396505,26.642844397189,20.5477442683236,2.27295910374374,2.12172792382048,1.90260020068053
walking,-1.57011780396,9.501858219,-1.632579957865,-0.13447265781,-0.15096283078,0.07081146417,3.2755209381023,5.16979160473145,4.37103255601681,1.38846324256137,1.46092270839283,1.25057285794629,10.7290374159466,26.7267452363518,19.1059256057589,1.92783017594404,2.13429515989783,1.56393247303196
walking,-1.64707519415,8.9823243506,-1.465430312965,-0.216621399067,-0.192469790005,0.1415420521,3.23912874166777,5.02912377117659,4.1144781381979,1.31059424155945,1.36799976919658,1.1921892548856,10.4919550050982,25.2920859058135,16.9289303497085,1.7176572660088,1.87142336852189,1.42131521946469
walking,-1.40039732544,8.95314694496,-1.52753419796,-0.136373902567,-0.128468322925,0.04479217488,3.21418614992029,4.91818128527545,3.99736236678696,1.38177505110838,1.32994809511775,1.29798160644593,10.3309926063394,24.1885071548336,15.9789058914047,1.90930229186555,1.76876193570733,1.68475625067197
walking,-1.21332396039,9.23036495619,-1.58016419283,-0.0147583022,-0.03200683462,-0.14813079822,3.27619934153431,5.31525102064324,4.15447456408262,1.48268614908274,1.46909100145637,1.29355776106296,10.7334821254698,28.251893412449,17.2596589036094,2.19835821668181,2.15822837056008,1.67329168120622
walking,-1.43936400823,9.16066771633,-1.64557677045,0.06280822694,-0.09074249366,-0.2023056003,3.2684653374914,5.33649082830378,4.24421205273183,1.5297355112386,1.48726384325759,1.26238344771381,10.6828656623828,28.4781343605704,18.0133359485541,2.34009073434441,2.21195373946135,1.5936119690618
walking,-1.52379577053,9.4251567642,-1.64921875316,0.17182006517,-0.04035949685,-0.15417632494,3.16509499931525,5.17351347505608,3.963714316952,1.51001182065927,1.34224968946531,1.25750502084995,10.0178263546904,26.7652416765868,15.7110311864103,2.28013569853072,1.80163422886971,1.58131887746283
walking,-1.9381707832,9.778647775,-1.388181316127,0.112571716627,0.51101226859,-0.39552764799,3.13567392245994,4.76291112470729,4.53040545308599,1.44518732952687,1.58362123999763,1.41044777904386,9.83245094799533,22.6853223818604,20.5245735693513,2.08856641742501,2.50785623177164,1.98936293740976
walking,-1.7709735262,9.870488398,-0.77004653826,-0.040649409643,1.2846160893,-0.60496368499,2.75085179213293,3.5905428895584,4.4301291970205,1.32978665306346,1.57798590928549,1.43532193091497,7.56718558228097,12.8919982417584,19.6260447022935,1.76833254266573,2.49003952990357,2.06014904536547
walking,-1.4049200499,9.951492444,-0.606044921483,0.00711670082,0.904612731618,-0.386534116398,3.04381614956778,3.49203892197091,3.69586844432113,1.29490757490672,1.42045175506165,1.32438854468087,9.26481675236965,12.1943358325598,13.6594435577287,1.6767856275508,2.01768318845771,1.75400501728191
walking,-1.55219360845,9.849838703,-1.21051635515,-0.04776306145,-0.000646973232,-0.034835810558,3.6462870534545,4.744673955471,3.95722396540853,1.34944522352094,1.26025032119605,1.23823104810186,13.2954092761899,22.5119309437249,15.6596215124036,1.82100241128349,1.58823087207476,1.53321612848344
walking,-1.57040344135,9.182870647,-1.468500965223,-0.17537078643,-0.24076995712,0.1387649584,3.39461923110843,5.30896552827819,3.9960109148106,1.34461088643673,1.28821173783619,1.21940595419232,11.5234397242112,28.1851149804461,15.9681032312855,1.80797843592417,1.65948948149895,1.48695088111967
walking,-1.48013976609,8.7929182613,-1.455980229023,-0.16345062246,-0.20850219627,0.1024810821,3.32336577499326,5.22441496731551,4.17438810150011,1.35884667323078,1.33885480009112,1.26179994720628,11.0447600743966,27.2945117507104,17.4255160219457,1.84646428135035,1.79253217572703,1.59213910676977
walking,-1.42110657322,8.8154663201,-1.65457459895,-0.06863403596,-0.1432189949,-0.02372741332,3.21262520111736,5.30712173170302,4.28486950445889,1.44964787626407,1.42185326153429,1.30195828388794,10.3209606828543,28.1655410751145,18.3601066702418,2.10147896515694,2.02166669733571,1.69509537298444
walking,-1.43529358507,9.00972839306,-1.77137940025,0.08674468768,-0.04072265957,-0.15545807107,3.38428763375376,5.42359495406456,4.27047935742834,1.49259568101724,1.44515207540433,1.28323361612866,11.4534027879786,29.4153822257545,18.2369939422216,2.22784186699132,2.08846452104544,1.64668851356263
walking,-1.33119995294,9.26966491526,-1.64274413486,0.14459381042,0.04049682443,-0.19279938125,3.53327595777295,5.36022592098827,4.27066729275189,1.50275019246007,1.46960370601977,1.2521019176479,12.4840389937763,28.7320219240345,18.2385991253808,2.25825814093877,2.15973505274705,1.56775921217756
walking,-1.25440918017,9.4234190407,-1.66050170126,0.16902160599,0.04804840292,-0.1682861324,2.98206179029333,5.16703414194794,4.21908552442033,1.52078067568526,1.40407930841652,1.24515819488305,8.89269252112744,26.6982418240557,17.8006826623732,2.31277386353772,1.97143870432342,1.55041893028442
walking,-1.21775147196,9.410196058,-1.9180102576,0.15397186001,0.07378997816,-0.16958923137,2.98989439379098,5.4905516585902,4.13041502033988,1.50666853161397,1.26761852474354,1.22318145889183,8.93946848602276,30.1461575156476,17.0603282402493,2.2700500641558,1.60685672427298,1.49617288137675
walking,-1.22655883789,9.0450114033,-1.82293822248,0.0827819816,0.068428040677,-0.132194514652,3.21019465718425,5.59247377392479,4.23424021395306,1.54128961886315,1.25207778961873,1.2362582927267,10.3053497370143,31.2757629120365,17.9287901894573,2.37557368921532,1.56769879125652,1.52833456633553
walking,-1.26540648673,9.30422790674,-1.43191466071,0.02091675249,-0.057588195263,-0.050772094182,2.84350728407518,5.18500941977802,4.09487238839785,1.60360120166668,1.34895448674467,1.28192541884318,8.08553367458862,26.8843226831868,16.7679798772631,2.57153681398683,1.81967820730858,1.64333277947626
walking,-1.15417175993,9.33304825334,-1.11820555913,0.02198486365,-0.16697387695,-0.0389587404,2.59982253106894,4.94617333035792,3.47389027181605,1.57862792675087,1.37823956768882,1.33008098366712,6.75907719305373,24.464630613944,12.0679136206182,2.49206613111776,1.89954430594307,1.76911542311289
walking,-1.1053979513,9.3136363109,-1.16150451403,0.10456084956,-0.15281067027,-0.0538055411,3.00524801651795,5.0660047844241,4.02476002751031,1.52131853797642,1.42476566977375,1.3281709357129,9.03151564078505,25.6644044758079,16.1986932790448,2.3144100939907,2.02995721376584,1.76403803447248
walking,-1.19213866965,9.5691870019,-1.22829773603,0.0908783002,-0.14385986429,-0.0391510031,3.12504464346539,5.20572048862647,4.14856013889016,1.54496147532597,1.45991466546157,1.33291869201096,9.76590402365173,27.0995258057054,17.2105512259883,2.38690596024139,2.13135083042978,1.77667223951221
walking,-1.28411619875,9.6632414094,-1.3960424736,-0.01795196193,-0.17667236267,0.01413726924,2.97979698931975,4.86622971365977,3.7438885068666,1.58313826928058,1.4258171875397,1.31270872594678,8.87919009755903,23.6801916261052,14.0167011518478,2.50632677966072,2.03295465228363,1.72320419917681
walking,-1.3065392859668,9.6510003817,-1.67904478991,-0.10191650763,-0.2214157132,0.09495086913,3.11854031980907,4.95536476782266,4.0416506192725,1.51595931199957,1.35920305706999,1.21964666368543,9.72529372627487,24.5556399821782,16.3349397282658,2.29813263563821,1.84743295034841,1.48753798423901
walking,-1.3863055260668,9.0442913839,-1.56109741424,-0.1846527126,-0.2768508931,0.09017639101,3.07009685077876,4.86571358756356,4.07584848531998,1.41557297515497,1.3169644010388,1.17926705859732,9.42549467316168,23.6751687162007,16.6125408752852,2.0038468479891,1.73439523360348,1.39067079549278
walking,-1.23917479084,8.757010339,-1.67547424653,-0.19682922674,-0.1797058128,0.06203155522,2.74253617065422,4.76047294597035,4.06653263847441,1.43009430943389,1.33404822637155,1.21544115684292,7.52150464734671,22.6621026693156,16.5366876997776,2.0451697338752,1.77968467028509,1.47729720574765
walking,-1.122203372974,9.019232039,-1.86292846143,-0.04547730054,-0.03199615328,-0.0732879625,2.75792731958928,5.05960070006709,4.28048874299766,1.46318841378787,1.37719430227499,1.25707907189558,7.60616310013692,25.5995592441194,18.3225838789297,2.14092033424307,1.89666414621869,1.58024779299785
walking,-1.133010271934,9.3351548676,-1.67287963113,0.11082000468,-0.00437468938,-0.21296539115,3.19583676264648,5.22306989819825,4.33520880262739,1.48695842206229,1.4762998859219,1.24519738599134,10.2133726134827,27.2804591614646,18.794035362378,2.21104534894198,2.17946135317302,1.55051653007967
walking,-1.0021136609,9.451120605,-1.5973504654,0.15691985942,0.028865055068,-0.19501037675,3.13801918849301,5.25336462083735,4.17722856379326,1.52272970036458,1.52009405703183,1.25994702892319,9.84716442735034,27.5978398394656,17.4492384741703,2.31870574037239,2.31068594222348,1.58746651569237
walking,-1.08233216346,9.4146890163,-1.73095474057,0.18089904404,0.079397586098,-0.1573699978,3.02411058895257,5.25733311447698,4.13314363785874,1.51681036026693,1.41437525441805,1.27185251462261,9.14524485421507,27.6395514765763,17.0828763311722,2.30071366901311,2.00045736031011,1.61760881895185
walking,-0.95612487675,9.32397899786,-1.70557997127,0.22200011567,0.08813476893,-0.1913894638,3.04600567840474,5.32933098234263,4.21590765216574,1.56937342228036,1.31227548418328,1.24653947170441,9.27815059287392,28.4017687193571,17.7738773315896,2.46293293855996,1.72206694638847,1.5538606545171
walking,-0.84410460809,9.27660964353,-1.81903441106,0.21582641629,0.07784881792,-0.178903199455,2.86068277400926,5.23839403789072,4.21586172187468,1.63058202233773,1.33238533331216,1.24160283605327,8.18350593351333,27.440772096209,17.7734900579681,2.658797731571,1.77525067642534,1.54157760249552
walking,-1.019347532,9.32082502757,-1.71251281628,0.018887333133,-0.06971130248,-0.044010929155,2.58619474481634,5.19874865001071,4.02961811886,1.66675717662571,1.34537809678806,1.25721719993214,6.68840325811563,27.0269875259882,16.2378221838448,2.77807948583332,1.81004222331706,1.58059508780522
walking,-1.04705505432,9.0232131764,-1.43665161383,0.033253474613,-0.51370544423,0.0595321649,2.54779297445635,5.23711623160939,3.55820703695885,1.68660205277025,1.28685484336546,1.17459136522166,6.49124904068914,27.4273864233865,12.6608373178635,2.84462648440882,1.65599538789315,1.37966487525327
walking,-1.04069947072,9.1350013935,-1.35669494854,0.29696044664,-0.73543548518,0.02052459346,2.67559806746555,5.20732414695017,3.31809152643054,1.60515895102815,1.3144567170108,1.13957635504614,7.15882501862538,27.1162247714103,11.0097313777701,2.5765352580658,1.72779646089481,1.29863426898024
walking,-1.17066773485,9.7859138761,-1.26743103823,0.22791748358,-0.5041137652,0.00248412972,2.72054903815364,5.06981491119319,3.80244420650539,1.56592178611495,1.44240032717572,1.22279849617392,7.40138706899869,25.7030232337568,14.4585819435864,2.45211104022944,2.08051870383662,1.49523616224521
walking,-1.16474061395,9.7559509152,-1.5993499898,-0.01625365965,-0.24967803835,0.06986084006,2.93356459423017,5.36946907180074,4.30061264826262,1.56690840750554,1.45913535446496,1.18491020808577,8.60580122852085,28.8311981130247,18.4952691503964,2.45520195751154,2.12907598264957,1.40401220122587
walking,-1.2099914662,9.0667144707,-1.58233032407,-0.19180907627,-0.2617370604,0.11790466056,2.9884569071618,5.53176640037925,4.38798681019371,1.45078144872774,1.49918528401772,1.14406552464942,8.93087468596305,30.6004395083648,19.254428246434,2.10476681197256,2.24755651581528,1.30888592469135
walking,-1.1166571057,8.8155020119,-1.42075072992,-0.20925140108,-0.2173995989,0.06816253586,3.25140209210827,5.50496830220276,4.36787529670439,1.40195975291392,1.48519795430668,1.24510122759292,10.5716155645661,30.3046760082572,19.0783346075604,1.96549114879046,2.20581296347674,1.5502770669534
walking,-0.84079588888,9.0780331231,-1.6288189778,-0.0483398466,-0.080349732837,-0.10102692145,3.26463506278669,5.48820954488875,4.30430694131197,1.51088125372909,1.41769214556734,1.24280931411975,10.6578420931763,30.120444008608,18.5270582450264,2.28276216286998,2.00985101960333,1.54457499126279
walking,-0.8211816298,9.231055293,-1.70975158749,0.09864349163,0.030467226993,-0.17490845106,2.70813206567429,5.23350958795301,4.12739947097576,1.55170953440707,1.28824971492012,1.17478598965289,7.33397928513327,27.3896226071961,17.035426393011,2.40780247916982,1.65958732799176,1.38012212148471
walking,-0.82149107808,9.385130772,-1.81427367614,0.11935424633,0.04797363288,-0.17265472431,2.57402985324416,5.19042904789051,4.29913323299756,1.57289102326769,1.27370130626749,1.21643344456146,6.62562968539217,26.9405537011856,18.4825465550641,2.47398617107607,1.62231501758751,1.47971032504765
walking,-0.87140746267,9.3583040026,-1.79980101089,0.13125304762,-0.00090332285,-0.16457977514,2.85024833815776,5.2423638073937,4.33713341835375,1.51732463369596,1.42685982990377,1.24027137454636,8.12391558917108,27.4823782890714,18.8107262886009,2.30227404402058,2.03592897419302,1.53827308251913
walking,-0.94636535544,9.3272698989,-1.73962523091,0.14260711162,0.06984862809,-0.1296737687,2.99537468088203,5.1403704509321,4.06012117648565,1.49123184796334,1.33957110837377,1.27676659660186,8.9722694788691,26.4234083728159,16.4845839677472,2.22377242438016,1.79445075438972,1.6301329421983
walking,-1.038842775168,9.3518591417,-1.77752074565,0.05573730202,0.03842468299,-0.10809783806,2.61591192091802,4.98817504250569,3.99061410807112,1.60590974371181,1.32848380055869,1.27557688033519,6.842995178001,24.8818902546767,15.9250009595362,2.57894610494855,1.76486920834686,1.62709637764565
walking,-0.849270023408,9.25829864444,-1.12894103438,0.00351715024,-0.12317046625,-0.06533050148,2.6652034032221,4.95017799841639,3.64195789548243,1.62970216663374,1.49536236519215,1.24224307104853,7.10330918054665,24.5042622160057,13.2638573124668,2.65592915193072,2.23610860323305,1.54316784756808
walking,-0.65567444367,9.26151806634,-0.89373657715,0.05713653538,-0.20453949035,-0.03873442826,3.00328742762412,5.1458271930702,3.76014455334167,1.57178236403469,1.45503679981807,1.23192124406365,9.01973537292512,26.4795375009407,14.138687062025,2.47049979989048,2.1171320888248,1.51762995157532
walking,-0.9343444813,9.8902157646,-1.48818665744,0.06889647776,-0.2319259641,-0.04430998818,2.92819996679893,4.95135268909053,4.23039492654449,1.54267476006226,1.43744529103709,1.20603485963581,8.57435504556127,24.515893451764,17.8962412345334,2.37984541533314,2.06624896472469,1.45452008265677
walking,-1.0628131053,10.2286033913,-1.70101562711,-0.0217544622,-0.2146224958,0.0104843162,2.76682760348073,4.66916838067439,4.21870548802835,1.54269474488412,1.46497843944999,1.18484318733813,7.6553349873829,21.8011333670895,17.7974759947205,2.37990707589308,2.14616182805332,1.40385337858157
walking,-1.0885211189,9.2964917143,-1.56516187877,-0.15893249756,-0.21935424708,0.06017303454,2.81751189422399,5.2026652303504,4.42796342921213,1.48493989992312,1.44340288703067,1.14431661002592,7.93837327409366,27.067725499097,19.60686013044,2.20504650638369,2.08341189428848,1.30946050398121
walking,-1.01903809222,8.8041595368,-1.5067237631,-0.22767639166,-0.24707183788,0.10173339964,3.01165167087947,5.36793440573412,4.43870696786648,1.47387543019234,1.42282046558872,1.14567803418116,9.07004578671108,28.8147197842642,19.7021195465865,2.17230878372466,2.0244180772981,1.31257815800521
walking,-0.784619149854,8.850707694879,-1.65024230226,-0.0961273177,-0.1464447036,-0.0014892565,3.21084726265736,5.67909029323282,4.27487019441361,1.57567540168382,1.4519754917802,1.24792629359003,10.3095401441143,32.2520665586912,18.2745151790858,2.48275297147148,2.10823282873034,1.55732003423335
walking,-0.672146605504,8.860252981479,-1.67087417211,0.0669311493,-0.088435361688,-0.1780807499,3.16772792288848,5.73168383894654,4.36234925417214,1.63136868424627,1.45103548851954,1.25052657362413,10.0345001934473,32.8521996296409,19.0300910153762,2.66136378393942,2.10550398894313,1.56381671134012
walking,-0.76559997395,9.2585247344,-1.64552322785,0.108427427,-0.036557005498,-0.2093231224,2.88983372304551,5.30363918347552,4.39002463602809,1.6262776662356,1.38563483918959,1.21708085148027,8.35113894685106,28.1285885884969,19.2723163049336,2.64477904769671,1.91998390757597,1.48128579903995
walking,-0.80551880198,9.3929918877,-1.80075317894,0.17054901404,0.04502563461,-0.1904388416,2.74206763274766,5.15281403345334,4.31882404948636,1.61965695629691,1.34969309390601,1.19825872465569,7.51893490256234,26.5514924633536,18.6522411704218,2.62328865608096,1.82167144773758,1.43582397121347
walking,-0.675764777134,9.3301322704,-1.51720336258,0.18318481916,0.05860137882,-0.16523131764,2.85324904385414,4.90278862397234,3.87135416709425,1.59217573512267,1.390144564246,1.15344108880442,8.14103010625459,24.0373362913526,14.987383087078,2.5350235715134,1.9325019095027,1.33042634534232
walking,-0.743200696494,9.4133262605,-1.3729290809713,0.10521240577,0.01491546714,-0.14323882484,2.83357037992764,4.93742794585061,3.90157922355584,1.62776968018104,1.39184685112594,1.18981542088254,8.02912109800329,24.3781947204665,15.2223204376826,2.64963413171668,1.93723765698919,1.4156607357699
walking,-0.70994689906,9.3830895988,-1.1838324038613,-0.01676635495,-0.01432953183,-0.08054046272,2.78731742709115,4.87993012471489,3.59283613725267,1.61035998674536,1.37411454186278,1.22378034285918,7.76913843936603,23.8137180220999,12.9084715091487,2.59325928691051,1.88819077415875,1.49763832756854
walking,-0.7442242391,9.4103746057,-0.9964257756,0.0934310912,-0.09766388617,-0.05214996707,2.99176052786311,4.85621867200994,3.56711713687309,1.54719085864003,1.50054877490426,1.21463926050027,8.95063105607978,23.582859790378,12.7243246681737,2.39379955305927,2.25164662586669,1.47534853314863
walking,-0.9945678822,9.7379850837,-1.42374999747,0.1360702475,-0.26377716575,-0.01192475087,3.15293466878219,5.15366291614474,4.32367926112766,1.67525726970773,1.49581829764434,1.20375651395675,9.94099702560864,26.5602414532455,18.6942023531054,2.80648691970859,2.23747237956762,1.44902974489331
walking,-0.9352728386,9.60921891324,-1.57952149335,-0.09832763946,-0.28440246991,0.09588012522,3.28452490990328,5.35681408833117,4.33793381626686,1.71386481483346,1.40034552464183,1.19871636993723,10.7881038837751,28.6954571769433,18.8176697943115,2.93733260352414,1.96096758838439,1.43692093555548
walking,-0.9713830458,8.93088455234,-1.44817261391,-0.23108367876,-0.24793700946,0.11240386722,3.07603862074869,5.22397737564705,4.402512258632,1.60060888805994,1.4388486531386,1.17605260077509,9.46201359633749,27.2899396212722,19.3821141874051,2.56194881253648,2.07028544663877,1.38309971978986
walking,-1.0388665612,8.88101577655,-1.45778931067,-0.16195526038,-0.158087154494,0.01403045167,2.72950179565948,5.18018068172905,4.48993575715823,1.55734600934273,1.44383057684086,1.17973706355836,7.45018005250834,26.8342718953588,20.159523103408,2.42532659281572,2.08464673462062,1.39177953913331
walking,-0.78328613213,9.16175677455,-1.54407777149,-0.05519714578,-0.042677305544,-0.01046142717,3.01407701797279,5.35772274333727,4.38840859412263,1.58151690080322,1.40798776790056,1.20884709832042,9.08466027027172,28.7051929944735,19.2581299889694,2.50119570752621,1.98242955455761,1.4613113071177
walking,-0.39758270787,8.9641145381,-1.54980256658,0.01227569693,-0.1037948614,-0.08943786772,3.25236565990787,5.49782445341273,4.1058707636918,1.60921293391341,1.39203573485225,1.18155241273823,10.577882385748,30.226073720543,16.8581747281391,2.58956626667421,1.93776348710563,1.39606610404754
walking,-0.6178146332,9.251163469,-1.78741120226,0.17084808818,-0.02585449229,-0.27794952592,3.02257882978106,5.31101491645119,3.77364509150496,1.48262453581536,1.24409634130755,1.14172720411019,9.13598278224064,28.206879442767,14.2403972766395,2.1981755142017,1.54777570645484,1.30354100860527
walking,-0.9541967697,9.676458442,-1.33243896993,0.112507631085,0.25197296231,-0.28270263693,2.36291752034096,3.5835228650093,2.74369770332152,1.22860657258323,1.10901809135155,1.03479344854369,5.58337920793428,12.8416361240445,7.52787708721179,1.50947411019471,1.22992112694503,1.07079748114895
walking,-0.6019970704,9.80950927,0.00763854437,-0.177239990905,1.32699890439,-0.10304565429,1.66040500449947,1.74858490859262,1.76829879169838,0.833130378256853,1.5142227521568,0.678258624550692,2.75694477896689,3.05754918255786,3.12688061672197,0.694106227174407,2.29287054314931,0.460034761777397
walking,-0.2034991449068,9.917125828,0.37778625116,-0.1639419564905,1.16160125996232,0.010505675761,1.12849493778114,1.37583006579232,1.36206156196484,0.347511216038946,1.43227035720947,0.25479808922977,1.27350082459767,1.89290836993809,1.85521169858211,0.120764045272867,2.05139837614094,0.064922066275142
walking,0.1397503684532,9.825291129,0.18635681152,0.017007446471,0.01446685736432,0.0029434199811,0.566742008109028,0.451026214009467,0.487917589879653,0.105852689286923,0.191864355375142,0.173240846271366,0.321196503755453,0.203424645723714,0.238063574513969,0.011204791829274,0.036811930863519,0.030012390816819
standing,0.3349884035,9.81626951,0.2440808103667,0.0089538574475,-0.016369628928,0.0047698974198,0.150228204001631,0.057004647394981,0.157461198950352,0.02219969392658,0.055505488688895,0.023403536758239,0.022568513277556,0.003249529824626,0.024794029174882,0.000492826410434,0.003080859274593,0.000547725532794
standing,0.25555541973,9.81150876,0.1472949221287,-0.005006408682,0.033564758629,-0.0041809082376,0.138295653552097,0.067304200727579,0.109808081683006,0.01855183772923,0.067708852598153,0.019317264988347,0.019125687791402,0.004529855435578,0.012057814802902,0.000344170683132,0.004584488720158,0.00037315672663
standing,0.19161865274,9.817245495,0.241438598982,-0.009043884249,0.049180603341,-0.0066802977993,0.235472752971125,0.09034774471445,0.16830656159672,0.017615477514593,0.079825636647969,0.022584033209733,0.0554474173918,0.008162714974987,0.028327098676511,0.000310305048067,0.006372132266254,0.000510038556018
standing,0.0953802493784,9.82395816,0.28261901835,0.002438354516,-0.031771850638,-0.010237121458,0.243346479007696,0.081722497974557,0.148483574091416,0.020641643281738,0.101329196497248,0.025158067487325,0.059217508845443,0.006678566675201,0.022047371774961,0.000426077437371,0.010267606062778,0.000632928359697
standing,-0.0572729488116,9.818340485,0.18933227544,0.007170105054,-0.02232971212,-0.001179504363,0.137997042479983,0.054679455590551,0.100031244974434,0.015734726360784,0.110929861790301,0.028724597847704,0.019043183733222,0.002989842863679,0.010006249971135,0.000247581613649,0.012305434236815,0.000825102521512
standing,0.030705567034,9.819506825,0.19897277839,-0.0043548583585,0.025874328587,0.0158035277544,0.19960407792564,0.052060574293893,0.09260699471945,0.015285002834927,0.078247151331542,0.023297140519391,0.039841787924545,0.00271030339581,0.008576055470968,0.000233631311664,0.006122616691501,0.00054275675638
standing,0.17559875488,9.8186261,0.24350952098,-0.0054336547865,-0.02440185544734,0.0015014648144,0.105216503978333,0.052302734148408,0.074903271660117,0.013309322691706,0.039714461703668,0.020955448692171,0.011070512709423,0.002735575999399,0.005610500105389,0.000177138070512,0.001577238468412,0.00043913082989
standing,0.076741943082,9.821887255,0.23953430167,0.0033782959585,-0.00334930426434,-0.011882019038,0.120783151037164,0.054150335354619,0.073819792750642,0.017385853425175,0.049710032086641,0.017062508760309,0.014588569574466,0.002932258819018,0.005449361801748,0.000302267899322,0.002471087290055,0.000291129205196
standing,-0.079196167094,9.829028355,0.16033935578,0.0120620728545,0.009051513594,-0.011657714802,0.095598177563921,0.044562707449489,0.106090103799764,0.016043202289878,0.034159897312235,0.015320938402085,0.009139011553543,0.001985834895229,0.011255110124245,0.000257384339714,0.001166898584382,0.00023473115352
standing,-0.18338500993,9.819816305,0.059816284433,0.0016479493155,-0.018003845238,0.000112915139,0.091705519792992,0.065111533202143,0.102601684160798,0.023089403506043,0.034938914291478,0.024604888912908,0.008409902360503,0.004239511755934,0.010527105592632,0.000533120554265,0.001220727731867,0.000605400558417
standing,-0.1524877928148,9.824053365,0.06436279294,-0.0018554686775,-0.00645751954234,0.005923461959,0.112517128637402,0.069605004918986,0.111621746564975,0.02195874720427,0.03728971675508,0.022944569454143,0.012660104236806,0.004844856709772,0.012459414306216,0.000482186578781,0.001390522975674,0.000526453267436
standing,-0.0696270752808,9.825981395,0.114993286317,-0.006501769951,-0.00043334968434,0.01164855966,0.100375168612073,0.050235126100467,0.099931782093644,0.019165232691732,0.025229161565455,0.023007646129433,0.010075174473902,0.00252356789433,0.009986361072412,0.000367306144128,0.000636510593296,0.000529351780417
standing,0.031276855114,9.82010187,0.2064947514,-0.0120346069045,-0.00356292732368,0.0154830933697,0.119504359066409,0.045215003247538,0.109880072038567,0.014212128886573,0.023687259950949,0.020421213660855,0.014281291835873,0.002044396518675,0.012073630231201,0.000201984607489,0.000561086283984,0.000417025967382
standing,0.09433288566,9.82640992,0.23465454173,0.0065505981515,-0.00352020266568,-0.0047256469669,0.088899705593156,0.040227782269494,0.074763126300328,0.01404606914688,0.022957912742798,0.017045074677031,0.00790315765455,0.001618274466322,0.005589525054199,0.000197292058479,0.000527065757506,0.000290534570746
standing,-0.03677795402,9.82962338,0.1122320565507,0.0127243042465,-0.006692504919,-0.0176391601469,0.154328655277948,0.053264392729183,0.107521969465088,0.013663928363185,0.03262876824686,0.014836401023758,0.0238173338399,0.002837095532809,0.011560973917651,0.000186702938314,0.001064636517307,0.000220118795338
standing,-0.24810729968,9.825481525,0.0032824709218,0.0086441040275,0.00060272207,-0.0192626953609,0.134227860099408,0.058024046719519,0.071608706847436,0.016677843933461,0.037614171622104,0.028801797268117,0.018017118426866,0.003366789997709,0.005127806896362,0.000278150478269,0.001414825906817,0.000829543525874
standing,-0.3532482904,9.823934335,-0.0219732664259,-0.003852844197,0.00920104971666,0.0005935668354,0.090325599884621,0.04822938071803,0.060514696787503,0.018243356405003,0.036125499649265,0.035123527881126,0.008158713994517,0.002326073164445,0.003662028527283,0.00033282005292,0.001305051724909,0.001233662210816
standing,-0.24486999415,9.828528445,0.063410644513,-0.013166809,0.00293121333766,0.021923828143,0.144025814289763,0.040248026291774,0.101661326326047,0.010089328149595,0.026211803222071,0.012914137059015,0.020743435181829,0.001619903620383,0.010335025270371,0.00010179454251,0.000687058628153,0.000166774935979
standing,-0.094097289464,9.82826657,0.1227532958,0.0005905151785,-0.01046295177302,0.0098434448521,0.101089392210488,0.051766491638323,0.089664742094028,0.017339868138333,0.022871412979688,0.019763444052925,0.010219065217486,0.002679769656541,0.008039765974788,0.000300671027055,0.000523101531687,0.000390593720833
standing,-0.014354858254,9.82933775,0.098116455123,0.0014770507195,0.00739593483498,0.0071624756331,0.150837648189854,0.079327492151797,0.111071564048846,0.02163020016491,0.044175247631394,0.025581159886992,0.022751996111446,0.006292851011093,0.012336892340257,0.000467865559174,0.001951452503295,0.000654395741164
standing,-0.00114379881,9.825624365,0.060197144083,0.019100952065,-0.02582244878534,-0.0204376219066,0.21023714845772,0.101321873067608,0.199557168754907,0.043478907643329,0.083060736644797,0.054921576231519,0.044199658591634,0.010266121961929,0.039823063601474,0.001890415409857,0.006899085971976,0.003016379535755
sit_down_chair_1,-0.68069213807,9.463355696,-1.1372247329,0.278172302917,0.17518615736266,-0.1811035155156,0.872707179595962,0.745134905450154,1.73068060188375,0.315071626001886,0.353195895803157,0.173899746469444,0.761617821318338,0.555226027320209,2.99525534573671,0.099270129511473,0.124747340812195,0.030241121822137
sit_down_chair_1,-2.9658364849,6.37918626,-5.23280793452,0.620812991424,0.144007873337,-0.2734848023,2.13174724793307,3.36830314056619,3.28846491896365,0.330691753924072,0.386254498454601,0.171822801289569,4.5443463290702,11.3454660467481,10.8140015232546,0.109357036113379,0.149192537576415,0.029523075042995
sit_down_chair_1,-4.851899711,2.21408431836,-8.350808432,0.383648684038,-0.087239075108,-0.13219451906,1.2806063828848,2.35069023944042,0.759892767752464,0.42068746972248,0.124432713663524,0.168877390249373,1.6399527078853,5.52574460180045,0.577437018482501,0.176977947181502,0.015483500229669,0.028519572937439
sit_down_chair_1,-5.184854123,0.67150268416,-8.492809467,0.006785583175,-0.025256347784,0.01638031022,0.235859940221873,0.354248514243685,0.21891578906803,0.07632243911957,0.057245501723651,0.061719660400787,0.055629911401466,0.125492009843858,0.047924122703278,0.00582511471316,0.003277047467593,0.003809316479988
sitting_chair_1,-5.226748665,0.7100885,-8.461317162,-0.009385681405,-0.005047607369,0.0286636354388,0.125143441941187,0.27625812028136,0.179665559395651,0.058549167403635,0.04115301161399,0.042332890947828,0.015660881060887,0.07631854902139,0.032279713232952,0.003428005003659,0.001693570364901,0.001792073656001
sitting_chair_1,-5.183425898,0.8716918945,-8.47290957,-0.0002532959045,0.00642395021298,0.0019393921158,0.067221987337021,0.052898142806297,0.055338076580246,0.011728730818288,0.021334504906085,0.012343110484034,0.004518795581539,0.002798213512355,0.003062302719601,0.000137563126608,0.000455161099588,0.000152352376421
sitting_chair_1,-5.178688963,0.8903778067,-8.469362795,-0.001812744134,0.0005920409969,0.0009567260532,0.037528078645179,0.032343826492124,0.046727547926169,0.004426450677193,0.00530598234236,0.004338027241324,0.001408356686799,0.001046123112153,0.002183463735192,1.95934655976263E-05,2.81534486174383E-05,1.88184803464654E-05
sitting_chair_1,-5.176380003,0.8922106933,-8.46591127,-0.001054382314,-0.00032653809878,0.001554870595,0.03013127429738,0.027045882470752,0.046959471526494,0.003116672110512,0.003928409468453,0.003472739457354,0.000907893690784,0.000731479758622,0.002205191966048,9.71364504444282E-06,1.54324009518346E-05,1.20599193386649E-05
sitting_chair_1,-5.172214327,0.890806274,-8.47083865,-0.000680541993,-0.00035858155214,0.0018539428592,0.029631125176436,0.020333620228295,0.037312989328704,0.002016230505432,0.002416558950996,0.001630689849024,0.000878003579222,0.000413456111589,0.001392259172644,4.06518545103304E-06,5.83975716363816E-06,2.65914938371104E-06
sitting_chair_1,-5.167263167,0.8918060302,-8.47693243,-0.0010009765515,-0.00047607422382,0.0013519286984,0.028637067781408,0.022630285414358,0.03371843989398,0.001917205296881,0.001970794005732,0.001804495709245,0.000820081651117,0.000512129817935,0.001136933188884,3.6756761503867E-06,3.88402901302834E-06,3.25620476468204E-06
sitting_chair_1,-5.166572876,0.8933770752,-8.47795597,-0.0009640502839,-0.00040908814008,0.0007971191387,0.024209428828467,0.022652582090287,0.032843577228905,0.001727032778107,0.002056079904128,0.001794095421106,0.000586096444201,0.000513139475357,0.001078700565191,2.98264221665506E-06,4.22746457215727E-06,3.21877838003504E-06
sitting_chair_1,-5.168524773,0.891401365,-8.47740845,6.43920873000001E-05,0.0003797912563,0.0004476928788,0.020342459439866,0.021368114190681,0.030345317839501,0.001601012905825,0.002314618950434,0.001451282174466,0.000413815656063,0.000456596304066,0.00092083831478,2.56324232461935E-06,5.35746088570815E-06,2.1062199499218E-06
sitting_chair_1,-5.167763055,0.8883782935,-8.479217545,0.0001693725558,0.0005889892542,-0.0001266479409,0.022349524483932,0.024700310044971,0.032963183746531,0.001776011784838,0.002418012964827,0.001638585674371,0.000499501244658,0.000610105316318,0.001086571482708,3.15421785988383E-06,5.8467866980691E-06,2.68496301225355E-06
sitting_chair_1,-5.165001817,0.8896874979,-8.47338564,0.0001693725567,-4.11987352E-05,-0.0002014160077,0.025682239609131,0.024895511004756,0.037059958102118,0.001769511224591,0.00264479051835,0.001870596013912,0.000659577431341,0.000619786468188,0.001373440494531,3.13116997395276E-06,6.99491688595278E-06,3.49912944726474E-06
sitting_chair_1,-5.164716161,0.8868072495,-8.46829165,0.0004043579074,0.0001510620112,-0.0001480102439,0.022805418082025,0.0219224528812,0.035705867284777,0.001551006982325,0.002357075976808,0.002045256786718,0.000520087093896,0.000480593940328,0.001274908958558,2.40562265922089E-06,5.55580716044521E-06,4.18307532361723E-06
sitting_chair_1,-5.164858999,0.8876879861,-8.47052918,0.0003829956037,0.0002685546904,-0.0004043578986,0.020692209486847,0.022072203707404,0.033153848548218,0.001572259700822,0.001574640006078,0.001874012010323,0.000428167533448,0.000487182176501,0.001099177673558,2.47200056682877E-06,2.47949114874071E-06,3.51192101483514E-06
sitting_chair_1,-5.162930914,0.8917822236,-8.473361825,0.0003295898418,-5.18798792E-05,-0.0002014160047,0.022650239697387,0.022006865873157,0.031574297304126,0.001512677657327,0.001767067359165,0.00166872559702,0.000513033358349,0.000484302145559,0.000996936250249,2.28819369497573E-06,3.12252705182725E-06,2.78464511815015E-06
sitting_chair_1,-5.162383428,0.891401369,-8.47919373,6.25610334000001E-05,3.35693406E-05,-9.46044846999999E-05,0.023499328476643,0.022561529321064,0.029323059180001,0.001354946127688,0.001946080151137,0.001689998091766,0.000552218438853,0.000509022605305,0.000859841799674,1.83587900893584E-06,3.78722795464811E-06,2.85609355017259E-06
sitting_chair_1,-5.162002577,0.8907824741,-8.47938419,0.0003829956021,-3.05175784000001E-05,-4.11987245999999E-05,0.022331139347918,0.023424286716088,0.031782247936194,0.001542662963667,0.002618538680188,0.001684363099334,0.000498679784576,0.000548697208157,0.001010111283878,2.37980901947073E-06,6.85674481963823E-06,2.83707905039798E-06
sitting_chair_1,-5.162526254,0.8916870122,-8.48316894,0.0004898071264,-0.0001800537138,-0.000158691399,0.021156068270335,0.024264209763657,0.031064046472959,0.001588302829898,0.002644899445244,0.001990923095872,0.000447579224659,0.000588751875455,0.000964974983274,2.52270587946109E-06,6.99549307545394E-06,3.96377477367459E-06
sitting_chair_1,-5.164192495,0.893448487,-8.48466854,3.05175774000001E-05,-0.0002334594764,-0.0001480102463,0.021574225082538,0.022222192017606,0.031479217955411,0.001525724756782,0.00207434913393,0.001780159700311,0.000465447187912,0.000493825818067,0.000990941163084,2.32783603345736E-06,4.30292432943731E-06,3.16896855861214E-06
sitting_chair_1,-5.159669786,0.8958288582,-8.472933335,0.00019073486,2.28881804E-05,3.35693450000001E-05,0.021213869742237,0.021600519574075,0.03620133236715,0.001602172839865,0.001969945967616,0.00156833349613,0.000450028269441,0.00046658244587,0.001310536465157,2.5669578088021E-06,3.88068711532675E-06,2.45966995508213E-06
sitting_chair_1,-5.158479616,0.895733642,-8.4716241,0.000308227536,8.69751018E-05,-0.0003295898342,0.023058653110957,0.022407580511324,0.03540427512478,0.001503048021523,0.001919698163968,0.001811506947461,0.000531701483291,0.000502099664371,0.001253462697111,2.2591533550037E-06,3.68524104074394E-06,3.28155742069934E-06
sitting_chair_1,-5.158455833,0.8926867661,-8.47778929,6.25610330000001E-05,-0.000126647943,-0.0003509521402,0.02481952771768,0.021789831021968,0.034477217624794,0.001311731526616,0.001796912073586,0.001613818658027,0.000616008956129,0.000474796735966,0.001188678535147,1.72063959791747E-06,3.22889300020049E-06,2.60441066099649E-06
sitting_chair_1,-5.159431765,0.8922344953,-8.478598635,0.0002975463825,5.4931647E-05,0.0001403808692,0.022373844026887,0.02203099886338,0.036113611376261,0.001318041758019,0.00169177006656,0.001515265657356,0.000500588896539,0.000485364910918,0.001304192926636,1.7372340758827E-06,2.86208595810765E-06,2.29603001236282E-06
sitting_chair_1,-5.163549802,0.8907586652,-8.481693085,0.0002868652315,0.0002899169932,-0.0003402709892,0.021683229179085,0.020121234273642,0.035046790252465,0.001372396766238,0.001920328382407,0.00162587725294,0.000470162427633,0.000404864068695,0.001228277507,1.88347288397934E-06,3.68766109627772E-06,2.64347684162769E-06
sitting_chair_1,-5.160693365,0.891877439,-8.48145507,0.0001480102526,7.62939414E-05,-0.0005111694297,0.022034107346705,0.018157562252191,0.033292022620468,0.001360378497226,0.001828098164949,0.001344015533585,0.000485501886566,0.000329697066942,0.001108358770162,1.85062965571491E-06,3.34194290069079E-06,1.80637775451819E-06
sitting_chair_1,-5.155956425,0.8941625951,-8.4803839,0.000521850581,-0.000115966793,-9.15526859999989E-06,0.019967048645607,0.021618533780309,0.03276075950668,0.001304375186848,0.001579024982677,0.001385434089277,0.000398683031616,0.00046736100281,0.001073267363455,1.7013946280649E-06,2.49331989591714E-06,1.9194276157299E-06
sitting_chair_1,-5.15459961,0.8934246808,-8.48197874,0.0003295898389,0.0002365112328,-0.0004364013627,0.020787120588813,0.023684829985621,0.032583771084983,0.001474094394374,0.001898450040091,0.001663607428205,0.000432104382374,0.000560971171448,0.001061702138119,2.17295428352579E-06,3.60411255472284E-06,2.76758967517753E-06
sitting_chair_1,-5.155075675,0.8892828364,-8.481431275,0.000115966794,9.76562468E-05,-0.0005859374969,0.022526582354481,0.020277927434236,0.032084177136041,0.001463108758836,0.001978147981821,0.001571709896571,0.000507446912573,0.000411194341028,0.001029394422497,2.14068724018367E-06,3.91306943798177E-06,2.47027199897909E-06
sitting_chair_1,-5.154671022,0.885736085,-8.48709655,0.0004684448153,-9.1552786E-06,-4.11987251999999E-05,0.021640432891069,0.021059251443431,0.033311130247883,0.001659550108143,0.002005341484331,0.001548925206544,0.000468308335713,0.000443492071358,0.001109631398391,2.75410656143779E-06,4.02139446877882E-06,2.39916929546854E-06
sitting_chair_1,-5.150362549,0.8895208733,-8.489714955,0.0003723144451,8.69750944E-05,-0.0004150390552,0.023853879009518,0.025906807353507,0.03376151540983,0.001639886208301,0.00188944480561,0.00179386323113,0.000569007543801,0.000671162667252,0.001139839922768,2.68922677617692E-06,3.57000167344709E-06,3.21794529199939E-06
sitting_chair_1,-5.148981927,0.893020017,-8.48481143,0.0001052856426,-0.0001907348628,-0.0008636474519,0.02416037856397,0.025020722932597,0.033050148432254,0.001186249725585,0.001587722300667,0.00147877754734,0.000583723892354,0.00062603657607,0.001092312311394,1.40718841144983E-06,2.52086210403486E-06,2.18678303451723E-06
sitting_chair_1,-5.153076156,0.8919012445,-8.48809642,0.0003295898379,1.52587659999999E-06,-0.0004257202046,0.021245954330812,0.022302471480978,0.031233864704555,0.001418315586723,0.001886759276407,0.001470768154217,0.000451390575427,0.00049740023416,0.000975554304382,2.01161910354106E-06,3.55986056710805E-06,2.16315896345887E-06
sitting_chair_1,-5.156456305,0.8921868905,-8.48797736,0.0004364013595,-5.18798846E-05,-0.0005538940367,0.023685731341303,0.022499205849716,0.030738364022311,0.001577564657326,0.002100763758852,0.001769771715939,0.000561013869172,0.000506214263868,0.000944847022768,2.48871024804414E-06,4.41320837050536E-06,3.13209192653823E-06
sitting_chair_1,-5.140007952,0.855862425,-8.49266659,0.0134460450401,0.0113983153938,-0.0128051758588,0.069280814001196,0.124089863461716,0.113011737672596,0.041930085699101,0.039595860333435,0.031293480520357,0.004799831188668,0.015398294213948,0.01277165285178,0.001758132086734,0.001567832155545,0.000979281923078
stand_up_chair_1,-4.921585078,0.92986816101,-8.73972533,-0.1220977780889,0.0495620727878,0.0460693356642,0.351829726890376,0.69881974085004,0.501271451099295,0.242935849626468,0.112620778990508,0.149312911180474,0.123784156723756,0.488349030201718,0.251273067687193,0.059017827033734,0.012683439860429,0.022294345445188
stand_up_chair_1,-3.1630740262,3.94751218541,-7.049459561,-0.67036132771,0.019836425945,0.366941831133,2.35104944457325,3.73638692172484,3.04741698603944,0.451136007521826,0.163444477833712,0.304752960463582,5.52743349082819,13.9605872288365,9.2867502868017,0.203523697282733,0.026714097334335,0.092874366911318
stand_up_chair_1,-0.0169375572,8.310827613,-2.3858841033,-0.570471191039,0.00983886734,0.333670041721,2.36181686146582,2.67784198674602,3.59722297065537,0.519776783562652,0.139831740425879,0.320406460356266,5.57817888710426,7.17083770597988,12.9400131006106,0.270167904730736,0.01955291563053,0.102660299838031
standing,1.3278173854,9.760402185,0.107733154427,-0.016781616229,0.022239685228,0.011868286023,0.33638781927489,0.252265872204654,0.311744332697496,0.119188927009013,0.079570530256128,0.100936060821531,0.113156764956516,0.063638070279175,0.097184528969007,0.01420600032156,0.006331469285241,0.010188088374168
standing,1.0631439231,9.7519519,-0.211046142033,0.0230270385061,-0.01191864007,-0.021531677296,0.13741267335857,0.097185479404362,0.129354007703333,0.021716302689224,0.028768358218843,0.022688364598452,0.018882242799549,0.009445017407056,0.016732459308914,0.00047159780249,0.000827618434608,0.000514761888152
standing,0.9657153282,9.76025944,-0.34694152836,0.0090347290521,-0.0070373535852,-0.0134994506627,0.097232326843295,0.026250247449077,0.080125604157513,0.008194447322456,0.012732425321714,0.008384953698167,0.009454125383361,0.000689075491138,0.006420112441606,6.71489669204984E-05,0.000162114654573,7.03074485203992E-05
standing,0.866525266,9.7746845,-0.4462982182,0.0123031616345,-0.0037582398096,-0.0115341186345,0.0427323151147,0.025082867775404,0.065220306669866,0.008892663891172,0.013445294547867,0.008798812580642,0.001826050755062,0.000629150255838,0.004253688402111,7.9079471081362E-05,0.000180775945479,7.74191028292721E-05
standing,0.738247071,9.77975467,-0.5703393565,0.0092483519583,-0.0079345703782,-0.0145889282368,0.12038378761118,0.032554429243651,0.103892638879807,0.018823782492308,0.017413484946699,0.011775675973283,0.014492256319614,0.00105979086338,0.01079368041341,0.000354334787318,0.000303229457989,0.000138666544628
standing,0.6372479242,9.78382507,-0.6282299822,-0.0012512207562,-0.0016326904644,-0.0071975707998,0.069577533125687,0.036461282936685,0.068460430320547,0.018024509292463,0.022955254978714,0.014835931147399,0.004841033115856,0.001329425153389,0.004686830519675,0.000324882935234,0.000526943731138,0.00022010485301
standing,0.6218469243,9.785800805,-0.6518670666,0.007005310056,0.0047760009572,-0.0049545287745,0.060206506887389,0.032978714181118,0.098165870121924,0.019976639353868,0.023736163938133,0.012066684645052,0.003624823471581,0.00108759558904,0.009636538056795,0.000399066119875,0.000563405478498,0.000145604878323
standing,0.5930682377,9.78115912,-0.7458679196,0.0098678588634,0.002618408169,-0.0066314696963,0.042779276855313,0.027266038565423,0.086544950714246,0.017294083693187,0.020172007666183,0.008305114975712,0.001830066528263,0.000743436859051,0.007490028494131,0.000299085330787,0.000406909893285,6.89749347598038E-05
standing,0.5830230712,9.78292058,-0.7601977514,-0.0049789428615,-0.0009597778588,-0.0009490966423,0.037145622363463,0.026535102107913,0.062284614345531,0.011387254798656,0.016012486837651,0.005208658431933,0.001379797260769,0.000704111643877,0.003879373184171,0.00012966957185,0.000256399734726,2.71301226605468E-05
standing,0.598495483,9.78472963,-0.7089483614,-0.0031524657957,-0.0025833129796,-0.0008209228219,0.037329293779402,0.031249804792491,0.062990804650123,0.01248654675327,0.012842438430843,0.005104516771853,0.001393476174069,0.000976550299569,0.00396784147047,0.000155913849822,0.00016492822485,2.60560914741267E-05
standing,0.6122778299,9.785467555,-0.6971417222,0.0016754150525,-0.0001586913982,-0.0017181396391,0.02929310466906,0.028951262545252,0.043579740489168,0.005179594144088,0.007183253985987,0.00298840982267,0.000858085981153,0.000838175602964,0.001899193781103,2.68281954974695E-05,5.1599137827194E-05,8.93059326823233E-06
standing,0.6101354977,9.78739562,-0.7076153568,0.0009704589824,0.0019561767494,-0.0034698486134,0.04020720824574,0.026316857823218,0.03881424534843,0.003153521855925,0.010486821706787,0.003644452377294,0.001616619594916,0.000692577005687,0.001506545641968,9.94470009579661E-06,0.00010997342951,1.32820331303607E-05
standing,0.5990667719,9.79010924,-0.7190649423,0.0031921386791,0.0017318725258,-0.0049224853295,0.041329922797594,0.0267281489849,0.043472198302427,0.003847611685319,0.012608325985672,0.003951516016188,0.001708162518455,0.000714393948159,0.001889832025246,1.48041156809999E-05,0.000158969884161,1.56144788261872E-05
standing,0.5648132317,9.791299455,-0.7527709966,0.0044738769572,-0.0005645752372,-0.006193542457,0.037677058838507,0.025506488333789,0.047450124754213,0.003418777848732,0.008945515389973,0.003322830569995,0.00141956076272,0.000650580947122,0.00225151433919,1.16880419789813E-05,8.00222455922445E-05,1.10412029968952E-05
standing,0.5381054711,9.787919305,-0.79076172,0.0023910522416,-0.0022735595898,-0.0046020507611,0.028579789624418,0.024448727035183,0.041614321836102,0.003689751823424,0.004381653290404,0.003443162700637,0.000816804374976,0.000597740253641,0.001731751781879,1.36142685184635E-05,1.91988855573046E-05,1.18553693830601E-05
standing,0.5355822786,9.785324695,-0.7976171882,-0.0004074096644,-0.0018676757998,-0.0020599365186,0.022982267434863,0.021255971990053,0.037663869736521,0.002851117795958,0.003648560759153,0.001950102696527,0.000528184616448,0.000451816345242,0.00141856708353,8.12887268642839E-06,1.33119956132326E-05,3.8029005270012E-06
standing,0.5377722179,9.781587565,-0.7893334952,-2.28881811E-05,-0.0004150390818,-0.0027435302612,0.021862311435292,0.018788740688908,0.032961334483464,0.002713101053415,0.003471959558952,0.002348578086872,0.000477960661294,0.000353016776675,0.001086449570931,7.36091732604331E-06,1.20545031789967E-05,5.51581903013295E-06
standing,0.19909301534,9.61160526,-1.25260132403,0.1963394160341,0.0139617924592,-0.1250213623277,0.897493768548679,0.425379621463846,1.1784153587074,0.281657536326131,0.185542881723942,0.161563545002076,0.805495064583709,0.180947822356725,1.3886627576375,0.079330967769306,0.034426160958425,0.026102779073638
sit_down_chair_1,-1.64319519356,7.388410019,-4.56205505823,0.5579391456544,-0.004228210302,-0.30926056071,1.86405584278767,2.52344940685681,3.26434549962762,0.306330983808659,0.201502374003256,0.163670620373332,3.47470418503086,6.36779690896601,10.6559515409391,0.093838671641181,0.040603206728948,0.026788071973391
sit_down_chair_1,-3.895430897,3.36446409655,-8.088836665,0.46629485886,-0.05250701947,-0.21280975527,1.05420998084706,2.46801245955361,1.3357963049908,0.306302482213173,0.081977818098945,0.193549128542094,1.11135868371757,6.09108550051184,1.78435176842707,0.093821210609951,0.006720362660264,0.037461265159404
sit_down_chair_1,-4.740962515,1.12948607916,-8.694807741,0.089421081617,-0.028015137054,-0.0048370365387,0.303052949316061,0.763057685752037,0.324154489348648,0.157603888325398,0.140535166847809,0.14713423667493,0.091841090089163,0.582257031785255,0.105076132964883,0.024838985615285,0.019750133120941,0.021648483601914
sit_down_chair_1,-4.785665899,0.87093017621,-8.690308841,-0.018223571612,0.0236282344764,0.0122100827966,0.242460754247667,0.543506603707328,0.326298375821922,0.101360383939811,0.138580282350926,0.148664094763912,0.058787217350348,0.295399428273474,0.106470630064024,0.010273927432426,0.019204494656462,0.022101013071974
sitting_chair_1,-4.647675791,0.8585522467,-8.79080813,0.006439208885,0.0174118040412,-0.0020065308007,0.134502395637072,0.127270227314706,0.123466960130706,0.038665240953338,0.04949039935448,0.052216818579793,0.018090894432111,0.016197710760737,0.015244090243917,0.00149500085798,0.002449299628266,0.002726596142595
sitting_chair_1,-4.551651616,0.8327490238,-8.82889407,0.0036087035804,0.0009201049808,-0.006332397485,0.034853194767214,0.047779141291972,0.043618936412789,0.024113016342047,0.00699487197012,0.029578668072546,0.001214745185481,0.002282846342598,0.001902611613783,0.000581437557112,4.89282338783711E-05,0.000874897604946
sitting_chair_1,-4.54339172,0.8273455833,-8.83586852,-0.0049148559348,0.0015182495166,-0.0140228271938,0.028140062990618,0.04089594384456,0.042107192764595,0.013625754176264,0.005453476937196,0.016210859081512,0.000791863145116,0.001672478222937,0.001773015682515,0.000185661176872,2.97404107045323E-05,0.000262791952161
sitting_chair_1,-4.54013061,0.8285595735,-8.83920104,0.0016860962147,0.000450134268,-0.000329589835,0.025535303015259,0.026213694411634,0.040940837115286,0.004858978732251,0.003784359592553,0.002665990592886,0.000652051700081,0.000687157774707,0.0016761521437,2.36096743204638E-05,1.43213775257508E-05,7.10750584135441E-06
sitting_chair_1,-4.534274898,0.8377001974,-8.84177184,0.0006820678739,-1.98364356E-05,-0.0008316039965,0.023823648902485,0.025748884426592,0.035508316364264,0.002406619522362,0.002949654249009,0.001916574071439,0.000567566247029,0.000663005049214,0.001260840531025,5.79181752541542E-06,8.70046018869871E-06,3.67325617131055E-06
sitting_chair_1,-4.532751452,0.8463409419,-8.839772315,0.0009811401386,-0.0002334594762,-0.0010665893528,0.024782330223467,0.02671638606891,0.032911370740037,0.002574131090077,0.002752403232742,0.001632667382588,0.000614163891305,0.000713765284583,0.001083158323988,6.62615086889931E-06,7.5757235556097E-06,2.66560278216527E-06
sitting_chair_1,-4.532608633,0.8486022935,-8.83698728,0.0012374877936,-8.39233378000001E-05,-0.0015045165979,0.024423417918093,0.024571266206724,0.032513919997482,0.002271427668757,0.002299262471152,0.001556236306291,0.000596503342802,0.000603747123002,0.001057154993603,5.15938365439457E-06,5.28660791124638E-06,2.42187144101761E-06
sitting_chair_1,-4.534155881,0.8497448731,-8.836606415,0.0008956909152,0.0002044677712,-0.0020385742139,0.021466363559627,0.023410599026697,0.032697407751332,0.001859938665081,0.00218993225647,0.001831750703561,0.000460804764474,0.000548056146789,0.001069120473657,3.45937183786409E-06,4.79580328792672E-06,3.35531063999496E-06
sitting_chair_1,-4.53796448,0.8546722399,-8.831679045,0.0004470825179,-7.32421922000001E-05,-0.0018890380818,0.02126976586443,0.026905309049591,0.033941848042064,0.002339606097381,0.002505734212945,0.001887156246677,0.000452402939928,0.000723895655054,0.001152049048511,5.47375669090214E-06,6.27870394592081E-06,3.56135869937234E-06
sitting_chair_1,-4.539654544,0.8593615688,-8.831655265,0.0003295898439,-0.0001586914106,-0.0016860961838,0.021510984557927,0.026777062600716,0.034808143703567,0.002582109846493,0.002498180421707,0.001928562142745,0.000462722456651,0.000717011081523,0.001211606868088,6.66729125935749E-06,6.24090541940142E-06,3.71935193842768E-06
sitting_chair_1,-4.539154645,0.8641461168,-8.83332152,0.0008102416944,-0.0001373291074,-0.0020278930555,0.02197256624422,0.025569382262097,0.033844080079295,0.002231504000696,0.00247603243137,0.001883091043198,0.000482793667357,0.000653793309265,0.001145421756414,4.97961010512031E-06,6.13073660119799E-06,3.54603187697329E-06
sitting_chair_1,-4.539702127,0.8693115227,-8.82948908,0.0009384155213,-0.0004364013748,-0.0016860961827,0.021371855817458,0.022912730663621,0.033584386770058,0.002175651339314,0.002541625544399,0.001706656411242,0.000456756221082,0.000524993226464,0.001127911034721,4.73345875025937E-06,6.45986040793934E-06,2.9126761060326E-06
sitting_chair_1,-4.542987045,0.8711444091,-8.83279782,0.0010452270455,-7.32421978E-05,-0.0016326904238,0.021489686203872,0.024834708499817,0.035820496497056,0.002165031870965,0.002717536075213,0.001620943727451,0.000461806613141,0.000616762746271,0.001283107969296,4.6873630022928E-06,7.38500232008358E-06,2.62745856756268E-06
sitting_chair_1,-4.540344845,0.8719299316,-8.83286926,0.0012908935504,3.35693326E-05,-0.0017822265583,0.021366413668678,0.025368918935714,0.034536175304074,0.002011652831264,0.00256437548291,0.001616815007861,0.000456523633061,0.000643582047967,0.001192747404634,4.04674711353237E-06,6.57602161735049E-06,2.6140907696438E-06
sitting_chair_1,-4.539749769,0.8758575441,-8.831940895,0.0014297485301,-0.0003829956046,-0.0014511108331,0.020804196620446,0.025427790403787,0.031053316079963,0.001853732438063,0.002485578405591,0.002018943571707,0.000432814597022,0.000646572524819,0.000964308439562,3.4363239519287E-06,6.17810001034104E-06,4.07613314573705E-06
sitting_chair_1,-4.541892093,0.876690674,-8.83008418,0.0015151977503,-0.0007568359344,-0.0018676757711,0.022425737893702,0.024659622711329,0.030909410115195,0.002050883530083,0.002742693507736,0.002345926944168,0.000502913720077,0.000608096992265,0.000955391633669,4.2061232539668E-06,7.5223676773793E-06,5.50337322737311E-06
sitting_chair_1,-4.540582865,0.8720965551,-8.82739438,0.0012695312484,-0.000617980954,-0.0022628784103,0.023900449464881,0.022402227003579,0.033890596257107,0.002168993709724,0.002837666966635,0.002160342767186,0.000571231484623,0.00050185977472,0.001148572514662,4.70453371282042E-06,8.05235381353094E-06,4.66708087173228E-06
sitting_chair_1,-4.541392195,0.8728582761,-8.827227785,0.0010665893494,0.0001403808514,-0.0026473998968,0.024992067547558,0.02211692542102,0.035823813298683,0.00179151689628,0.002665298908568,0.002127446318777,0.000624603440302,0.000489158390079,0.001283345599259,3.20953278965548E-06,7.10381827201385E-06,4.52602783927922E-06
sitting_chair_1,-4.539130853,0.8778332549,-8.82684694,0.0009597778323,-0.0002120971702,-0.0028182983325,0.031548455621723,0.041274266432324,0.037116752329253,0.004580836077296,0.003690876037326,0.002569650354113,0.000995305052116,0.001703565069526,0.001377653303471,2.09840591670584E-05,1.36225659229058E-05,6.6031029423928E-06
sitting_chair_1,-4.643819576,0.7969958497,-8.77564519,0.0234115600563,-0.0179855344608,-0.0203247069503,0.197714213470115,0.230785356359488,0.179271525294293,0.057531884191464,0.069525384422427,0.042578572500945,0.039090910208106,0.053261880709976,0.032138279781342,0.00330991769862,0.004833779079086,0.001812934836218
sitting_chair_1,-4.5483667,0.976523436859,-8.960695235,-0.1343490616448,0.0628173832274,0.0693328859215,0.415459205953092,0.803835200931631,0.507886277219841,0.275049687311104,0.133860820178834,0.13549486184243,0.172606351811174,0.646151030256796,0.25794847058823,0.075652330489936,0.01791871917895,0.018358857585699
stand_up_chair_1,-2.56089966234,4.468599269859,-6.66282776725,-0.69199066601,0.090289306995,0.31146392861,2.1403621752712,3.56092279443203,3.37372101149951,0.482262680614422,0.159141879751226,0.195730645729258,4.58115024133168,12.6801711479056,11.3819934634333,0.232577293113408,0.025326137890754,0.038310485677592
stand_up_chair_1,0.18404906909,8.739841962,-2.08615966175,-0.543640139582,0.002436828773,0.226089477924,1.51088417372935,1.66208432516456,3.00044078147278,0.573900249588584,0.154680238225407,0.25536482375225,2.28277098642582,2.76252430395773,9.00264488312497,0.329361496477839,0.023925976097469,0.065211193210018
stand_up_chair_1,1.07949707063,9.76692446,-0.10923767065,-0.0088134766385,-0.0127517699786,0.0030563355563,0.315049448976003,0.196843943745807,0.264280321571707,0.041786142770037,0.085157835271723,0.039366584292357,0.099256155300083,0.038747538189403,0.069844088370045,0.001746081727598,0.007251856908166,0.001549727958847
stand_up_chair_1,1.011870731,9.752023325,-0.15701171847,-0.001496887228,-0.0031066894258,-0.0005218505665,0.042657542008175,0.047388102158333,0.066999194760975,0.012841684569889,0.017782995124802,0.005495881253279,0.001819665890179,0.002245632226169,0.004488892098619,0.000164908862593,0.000316234915609,3.0204710750141E-05
standing,1.0030871639,9.753808555,-0.13263671843,0.0011734008837,0.0032379150472,-0.0064178466718,0.041288134429102,0.024754592895434,0.04512513411155,0.00583858587587,0.006955924063914,0.006448630304272,0.001704710044636,0.000612789869419,0.002036277728585,3.40890850299106E-05,4.8384879582941E-05,4.15848328011695E-05
standing,0.9465771512,9.758569295,-0.13104186993,0.002850341804,0.0012512207092,-0.0096755981237,0.066713786089531,0.025922419745757,0.047612494912338,0.004886754698925,0.006894654234224,0.004849197570378,0.0044507292544,0.000671971845475,0.002266949671777,2.38803714874688E-05,4.7536257009496E-05,2.35147170765592E-05
standing,0.9053729259,9.764282205,-0.11852111817,-0.0001296996809,-0.0009277344,-0.0034484862979,0.033894271509302,0.024652664438651,0.04570352554562,0.005340306430066,0.007554576588615,0.006773242106851,0.001148821641146,0.000607753863925,0.002088812247299,2.85188727670077E-05,5.70716274332422E-05,4.5876808638025E-05
standing,0.9151800568,9.770875835,-0.14101562523,0.0108398438253,0.0146453856552,-0.0047088623072,0.055978655044258,0.031367305068138,0.073165151907668,0.013537191489302,0.034314661544112,0.008150204890836,0.003133609820564,0.000983907827238,0.005353139453672,0.000183255553418,0.001177495996887,6.6425839762605E-05
standing,0.9159655762,9.76447267,-0.26091491749,0.016938781659,0.011494445729,-0.005146789521,0.100383306439904,0.078249680159324,0.155391509013487,0.053257369218045,0.060008782620205,0.0298210578429,0.010076808211808,0.006123012445036,0.024146521073489,0.002836347376027,0.003601053991559,0.00088929549087
standing,0.9096813963,9.75783143,-0.38055236861,0.0070907591657,-0.008222961602,-0.0015899657691,0.101890992249648,0.078769346896461,0.132439053540098,0.05385534660654,0.059231519833889,0.02940968965085,0.010381774301618,0.006204610010495,0.017540102902597,0.002900398358111,0.003508372941832,0.000864929845359
standing,0.888615114,9.763853755,-0.4218756102,0.0045700073524,-0.0062789918822,-0.0055953978958,0.062204919012346,0.038333446226876,0.052914743260907,0.011404728845525,0.034916980189409,0.005949716453511,0.003869451949333,0.001469453099629,0.002799970054368,0.00013006784004,0.001219195505548,3.53991258771821E-05
standing,0.839746094,9.759093025,-0.4700067122,0.0058303833255,-0.0016647339056,-0.0066101073554,0.054684597911037,0.032550619565422,0.068945575512814,0.007051579087317,0.010123308252939,0.006026550631994,0.002990405248692,0.001059542834093,0.004753492382793,4.97247676246871E-05,0.000102481369984,3.6319312519986E-05
standing,0.832962036,9.76028319,-0.4925488274,-0.0005462645971,0.000151062006,-0.0010772704654,0.05341241528564,0.028885721465715,0.055585723984007,0.007860484856281,0.009965670642095,0.007080649409579,0.002852886106646,0.000834384904595,0.003089772710826,6.17872221758229E-05,9.93145913467181E-05,5.0135596061367E-05
standing,0.8484344463,9.767091025,-0.471006471,0.0022949219052,-0.0033203125246,-0.0035980224307,0.049810007088747,0.025999277160734,0.062293826080054,0.009692523381343,0.010774800674783,0.007745734461149,0.002481036806181,0.000675962412881,0.003880520767692,9.39450094978732E-05,0.000116096329581,5.99964023426361E-05
standing,0.7955664055,9.766281705,-0.52687378,0.0083618164116,-0.004484558149,-0.0079345702781,0.061070699792602,0.026211605949464,0.082467063122701,0.007218812963935,0.011861093502085,0.006876243887598,0.003729630373158,0.00068704828645,0.006800816500084,5.21112606082767E-05,0.000140685539065,4.72827300017288E-05
standing,0.7681683361,9.765258165,-0.5923815921,0.0056701660571,-0.003544616739,-0.0052856444791,0.045030577702998,0.031120465733663,0.051738638001156,0.006718199617963,0.012956254199356,0.007015410620701,0.002027752928266,0.00096848338748,0.002676886662215,4.51342061067933E-05,0.000167864522878,4.92159861770439E-05
standing,0.7620031738,9.767543335,-0.6310626238,0.0030853272038,-0.0049652099784,-0.0038757323894,0.050534607720024,0.031852183189772,0.054222875358115,0.006523501365321,0.012437999705829,0.005460076490707,0.002553746577417,0.001014561573955,0.002940120212102,4.25560700633459E-05,0.000154703836682,2.9812435284367E-05
standing,0.7625268549,9.76985226,-0.6392272966,-0.0002044677492,-0.0010025024714,-0.0021560668651,0.072439309213316,0.028077599303338,0.052136363324765,0.007288367237013,0.02379052384004,0.006940292006933,0.005247453519302,0.000788351582639,0.002718200380732,5.31202969815573E-05,0.000565989024584,4.81676531415033E-05
standing,0.7553381348,9.76949521,-0.6457257099,0.0040145874117,-0.0010879517096,-0.0052749633321,0.071665464331433,0.028805521750071,0.056288472095236,0.00834163192781,0.023240384513069,0.007826508821696,0.00513593877784,0.000829758083294,0.003168392090816,6.95828232190533E-05,0.000540115472315,6.12542403360801E-05
standing,0.7267260735,9.767733765,-0.6782415807,0.0045166015763,-0.0030319214154,-0.0054244994935,0.035135425322276,0.025230069595729,0.045809122151092,0.006296217672523,0.008490391331266,0.005497673702009,0.001234498112577,0.000636556411805,0.002098475672254,3.96423569797925E-05,7.20867449580294E-05,3.02244161337585E-05
standing,0.719846801,9.76425842,-0.6942138693,0.0020812988264,0.000695800773,-0.0036193847561,0.029766378392305,0.021162932227679,0.040240619506132,0.003910474213007,0.006429122041442,0.003236978213006,0.000886037282594,0.000447869700473,0.001619307458237,1.52918085705953E-05,4.13336102237522E-05,1.04780279514779E-05
standing,0.7152288832,9.763139635,-0.7015454117,0.0014831543,-0.0002441406182,-0.0038436889561,0.027409880569016,0.021952078057319,0.03617622124811,0.004480274666588,0.005485345001136,0.003453439108738,0.000751301552808,0.000481893731035,0.001308718983792,2.00728610880746E-05,3.00890097814882E-05,1.19262416777593E-05
standing,0.7136340338,9.765543845,-0.6961419714,0.0015899658728,-0.000714111313,-0.0040145873861,0.027839244688322,0.023239386942171,0.035327385577516,0.004850540096465,0.005060302142764,0.003562503520571,0.000775023544816,0.000540069105448,0.001248024171743,2.3527739227417E-05,2.56066577760602E-05,1.26914313340822E-05
standing,0.7008990455,9.767281525,-0.7175891141,0.0015686035907,0.0013793945432,-0.0036727905014,0.041364336804746,0.024482843861516,0.04639365542778,0.007152933261788,0.007681883645507,0.005084554457606,0.001711008359296,0.000599409643547,0.002152371263952,5.11644542475973E-05,5.90113363431057E-05,2.58526940323657E-05
standing,0.6977807597,9.76816222,-0.7314190691,0.0021881103856,-5.18798991999999E-05,-0.0038330077752,0.047463292290372,0.026734094655743,0.059173423857554,0.008495934036808,0.009366498972602,0.005823496751069,0.002252764115041,0.000714711817062,0.003501494091026,7.21808951577945E-05,8.77313030037464E-05,3.39131144097135E-05
standing,0.6917822264,9.77085205,-0.7377032484,0.0067382812289,-0.0034057617212,-0.0064819335645,0.039285330535738,0.026098664464215,0.061768828342004,0.00626737934565,0.007517877217508,0.004375916036404,0.001543337195302,0.000681140286816,0.003815388154744,3.92800438622777E-05,5.65184778575309E-05,1.91486411576549E-05
standing,0.6627178955,9.766329365,-0.795427245,0.0051467895603,-0.0071014403908,-0.0042175292829,0.037622493810563,0.026581894092212,0.057217854824899,0.006527872019541,0.010683611942481,0.006096059741223,0.001415452040526,0.00070659709353,0.003273882910763,4.26131131035075E-05,0.000114139564138,3.7161944368565E-05
standing,0.6486737058,9.759283435,-0.8333703603,0.0023590088292,-0.0043670654186,-0.0028930663863,0.03388244938685,0.024242940371411,0.038210904537069,0.005456022677357,0.01129195541981,0.005680773157665,0.001148020376452,0.000587720157852,0.001460073225541,2.97681834558302E-05,0.000127508257203,3.22711836688476E-05
standing,0.6635272218,9.761187725,-0.8103759764,-0.0025329589664,0.0023727416946,-0.0010131835723,0.036566983787894,0.023924546513585,0.045857766772137,0.005824644385745,0.004966877949714,0.005126728348955,0.001337144303344,0.000572383925881,0.002102934773328,3.3926482220385E-05,2.46698765673582E-05,2.6283343563978E-05
standing,0.737675781,9.76985229,-0.7205169683,0.0516098021901,0.022111510856,-0.0315826417142,0.251823549899378,0.153348793462172,0.251090203708053,0.119031986859323,0.135531165304974,0.079294292683012,0.063415100283925,0.023515852456304,0.063046290398152,0.014168613895678,0.018368696768924,0.006287584852099
sit_down_chair_1,-0.17412536606,8.778951406,-2.7867980999,0.4774032592544,0.0051925659018,-0.218139649221,1.23570021883074,1.47097911783639,2.57022600172717,0.413262395368545,0.183725408789458,0.190330029602717,1.52695503081834,2.16377956511074,6.60606169995443,0.170785807425747,0.033755025834854,0.036225520168571
sit_down_chair_1,-2.59465331296,5.032223512,-6.982225965,0.5958465583,-0.061949157629,-0.26568145859,1.63996951087599,3.04938080692595,2.50502823939266,0.337237023523348,0.139540175344065,0.185477897621337,2.68949999660282,9.29872330564838,6.2751664801547,0.113728810034887,0.019471460535052,0.034402050506031
sit_down_chair_1,-4.320089102,1.5667126502,-8.934035034,0.18673706138,-0.066862488236,-0.084497070526,0.414741042500467,1.05986449396843,0.32693011078735,0.249032471308609,0.088579278227791,0.149937640705013,0.172010132334374,1.12331274557495,0.106883297339429,0.062017171766073,0.007846288531356,0.022481296100186
sit_down_chair_1,-4.652174674,0.8123492441,-8.802471929,0.023860168648,-0.014674377605,-0.0024765012501,0.212658565382459,0.289757128760281,0.239873335670725,0.095912076335896,0.063898241013484,0.033912183150441,0.045223665430526,0.083959193667402,0.0575392171658,0.009199126387063,0.004082985204617,0.001150036166029
sitting_chair_1,-4.673693234,0.7602429204,-8.787594595,0.0118972778244,0.00619659423,0.0009841919131,0.094186513448493,0.048801454407422,0.080366662458891,0.023926347122595,0.017777340143918,0.012683052114267,0.008871099315583,0.00238158195228,0.006458800434781,0.000572470086631,0.000316033822593,0.000160859810933
sitting_chair_1,-4.637821027,0.74517517,-8.797568335,0.0019638061426,0.001229858385,-0.0019210815349,0.026632261593557,0.022092796804151,0.031221012106429,0.002362155152218,0.0029354968843,0.002025781483559,0.000709277357588,0.00048809167063,0.00097475159695,5.57977696314861E-06,8.61714195773385E-06,4.10379061912896E-06
sitting_chair_1,-4.634845563,0.737867431,-8.80063901,0.0015792846618,0.0007598876908,-0.0022842407173,0.024397212092168,0.021894644764209,0.032420857727749,0.001792288634184,0.002190142728951,0.002005427673795,0.00059522395787,0.000479375469351,0.001051112015803,3.21229854822607E-06,4.79672517317562E-06,4.02174015482289E-06
sitting_chair_1,-4.62898987,0.7321069353,-8.800543775,0.0012054443299,0.0007064819306,-0.0025939941319,0.025718021216957,0.016942575650611,0.034379533351715,0.001880917294657,0.002187905361723,0.002067699708299,0.000661416615316,0.000287050869677,0.001181952313482,3.53784986933872E-06,4.78692987185574E-06,4.27538208370035E-06
sitting_chair_1,-4.624348135,0.7340588391,-8.80268612,0.0004840087794,0.0003417968772,-0.00146759032298,0.024457514796431,0.019411057875458,0.03569272441312,0.001623466422424,0.002228142104932,0.002500061025863,0.000598170030018,0.000376789167844,0.001273970576031,2.63564322473972E-06,4.96461723977026E-06,6.25030513303977E-06
sitting_chair_1,-4.626419056,0.7321307366,-8.806947,-1.49536228E-05,-0.0003280639606,0.00013763427276,0.021487335945778,0.020180768311861,0.031565117101979,0.001384445725385,0.001963967625653,0.002155058037389,0.000461705606047,0.000407263409657,0.000996356617662,1.91668996653648E-06,3.85716883461389E-06,4.64427514451343E-06
sitting_chair_1,-4.623538822,0.7290838616,-8.8050189,-0.0003479003962,-0.00050506592,0.00084075926932,0.022448176577159,0.017918527040963,0.03178113279681,0.001236339559973,0.001833479962088,0.001949245648022,0.000503920631639,0.000321073611318,0.001010040401848,1.52853550755403E-06,3.36164877137969E-06,3.79955859633088E-06
sitting_chair_1,-4.622062988,0.7291314696,-8.80485229,-0.0003265380892,-0.00065460205,0.0008087158152,0.02097120893762,0.019343612352198,0.034133511745301,0.001342342498441,0.001977419620418,0.001988142792554,0.000439791604305,0.000374175338832,0.001165096624067,1.80188338312057E-06,3.91018835521587E-06,3.9527117635856E-06
sitting_chair_1,-4.621586903,0.7302978507,-8.807708765,-0.0002410888711,-0.000772094719,0.00050964355076,0.019821838553313,0.021059250126435,0.030701297614587,0.001272172258505,0.001964703342248,0.001829232497748,0.000392905283634,0.000443492015888,0.000942569675219,1.61842225530917E-06,3.86005922304134E-06,3.34609153081912E-06
sitting_chair_1,-4.618492427,0.7307025136,-8.80968447,-0.0002197265681,-0.000473022455,0.00093688964488,0.020782042368303,0.022173165185732,0.034298804427496,0.001093491702864,0.001938247845969,0.001759879081898,0.000431893284998,0.000491649254354,0.001176407985156,1.19572410423194E-06,3.7568047124015E-06,3.0971743829028E-06
sitting_chair_1,-4.620468136,0.7311309821,-8.80811343,-0.0002090454168,-0.000505065915,0.0012573242152,0.02117207408645,0.02270981320019,0.036216744137684,0.001091540307922,0.001961033989471,0.001746073824296,0.000448256721122,0.000515735615588,0.001311652555934,1.19146024381785E-06,3.84565430785984E-06,3.04877379989262E-06
sitting_chair_1,-4.621586923,0.7355584723,-8.807923025,-6.10352330000003E-06,-0.000601196291,0.00087280273476,0.021609427891739,0.02298442013465,0.034026648064895,0.001308432899404,0.002194137998664,0.001649974480977,0.000466967373808,0.000528283568926,0.001157812778532,1.7119966522438E-06,4.81424155718023E-06,2.72241578787464E-06
sitting_chair_1,-4.61737367,0.7334399413,-8.805256995,9.00268459E-05,-0.000270080568,0.00061645507588,0.022295230254123,0.022063384774523,0.034260243252341,0.001344701292429,0.002218244245037,0.001588484208497,0.000497077292084,0.000486792947709,0.00117376426771,1.80822156585899E-06,4.92060753064016E-06,2.52328208064549E-06
sitting_chair_1,-4.617778317,0.7280603032,-8.80454287,6.86645431E-05,-0.000462341308,0.00078735350968,0.019143835053916,0.020009924308629,0.033963453089471,0.001227499601157,0.002040744237014,0.001769674030376,0.000366486420572,0.000400397070837,0.001153516145761,1.50675527084086E-06,4.16463704090547E-06,3.1317461737868E-06
sitting_chair_1,-4.61723084,0.7315118421,-8.806090095,0.0001434326078,-0.000889587401,0.001054382322,0.01961013308577,0.023115276924204,0.034160187720052,0.00127903817243,0.001853732443768,0.00179793790649,0.000384557319642,0.000534316027283,0.001166918425069,1.63593864653381E-06,3.43632397307738E-06,3.23258071559449E-06
sitting_chair_1,-4.616968996,0.7342016609,-8.800924655,0.0001541137598,-0.000740051268,0.00084075927232,0.020592280110863,0.023994566675685,0.035448196278406,0.001353244047604,0.002050209118798,0.001729995014801,0.000424042000164,0.000575739229954,0.001256574619392,1.83126945237698E-06,4.20335743080221E-06,2.99288275123711E-06
sitting_chair_1,-4.616707149,0.7317260729,-8.79911556,0.000175476064,-0.000772094727,0.0004241943278,0.021457187444043,0.021712261326228,0.035920553538349,0.001377885795397,0.00221296496124,0.001572003158162,0.000460410893009,0.000471422291898,0.001290286166501,1.8985692651568E-06,4.89721391967774E-06,2.47119392927008E-06
sitting_chair_1,-4.617421269,0.7323687755,-8.798472865,0.0002288818245,-0.00101776123,0.00063781737568,0.024460855146002,0.020946994059435,0.03152594073772,0.001444241427743,0.00204412957916,0.001786137677231,0.000598333434474,0.000438776560126,0.000993884939398,2.08583330160873E-06,4.17846573639807E-06,3.1902878020243E-06
sitting_chair_1,-4.619682621,0.7278460708,-8.802638515,0.0002288818299,-0.000889587406,0.00056304931,0.022465436783032,0.021746779531084,0.032861298777601,0.001467983975551,0.002059854315384,0.001740620371374,0.000504695849852,0.000472922419974,0.001079864957351,2.15497695247323E-06,4.24299980060659E-06,3.02975927724092E-06
sitting_chair_1,-4.613612669,0.7259179681,-8.80501892,4.57763140000002E-06,-0.000889587406,0.00106506347344,0.023445835724864,0.020812993975056,0.036831155898599,0.001322580427124,0.002221359102101,0.001501513837363,0.000549707212837,0.000433180718206,0.001356534044827,1.74921898621088E-06,4.93443626048507E-06,2.25454380379276E-06
sitting_chair_1,-4.61242249,0.7269177251,-8.806351955,0.0001327514552,-0.000440979004,0.00091552734264,0.02440158664103,0.019851292672115,0.035185448764196,0.001327798067956,0.002424557176617,0.00174422487513,0.0005954374306,0.000394073820754,0.001238015804738,1.76304770926733E-06,5.87847750268614E-06,3.04232041502396E-06
sitting_chair_1,-4.610922851,0.7226330569,-8.813635855,0.0001861572193,-0.000558471685,0.00026397705032,0.023655368352363,0.019892768414247,0.033118677101768,0.001347825670843,0.002467080190229,0.001597274332477,0.000559576451886,0.000395722235183,0.001096846772971,1.81663403898401E-06,6.08648466502103E-06,2.55128529318902E-06
sitting_chair_1,-4.610494386,0.7227758794,-8.80592346,0.0001541137646,-0.000878906259,0.00084075927712,0.023336758632577,0.01918936287186,0.034059031540817,0.001435878917191,0.002625921812436,0.001598428275914,0.000544604303475,0.000368231647428,0.001160017629498,2.06174826483306E-06,6.89546536502665E-06,2.55497295324213E-06
sitting_chair_1,-4.607804575,0.7227758778,-8.803471695,-0.0002944946417,-0.000675964361,0.00131072997456,0.033934283662624,0.050766478973414,0.034669366465522,0.003636903120629,0.004944833896869,0.003191932256729,0.001151535607695,0.002577235387358,0.001201964971121,1.32270643088429E-05,2.44513822676261E-05,1.01884315315443E-05
sitting_chair_1,-4.606947629,0.7202526866,-8.81116029,-0.0001235962049,-0.000868225098,0.0009048461824,0.039234585777698,0.063092245638337,0.035132713215891,0.004298960288018,0.005237638414905,0.003927573318843,0.001539352721148,0.003980631459688,0.00123430753791,1.84810595579598E-05,2.74328561652934E-05,1.54258321748851E-05
sitting_chair_1,-4.613588861,0.7182769816,-8.81351684,0.000485229481,-0.000569152833,0.00049896240084,0.029523920832741,0.041974211993327,0.033790285416966,0.002678238578031,0.002983836697699,0.002876869671439,0.000871661901338,0.001761834472461,0.00114178338856,7.17296188085287E-06,8.90328143853318E-06,8.27637910644435E-06
sitting_chair_1,-4.636821284,0.6860467552,-8.80344784,0.0016387939632,-0.005952453673,-0.0022781372468,0.140389375457567,0.14497203272064,0.099838036415043,0.0101002016397,0.026617534971565,0.015266078734343,0.019709176741366,0.021016890271154,0.009967633515212,0.000102014073163,0.000708493167962,0.000233053159923
sitting_chair_1,-4.389833993,0.9605511517,-8.89073607,-0.0612731934373,0.066914367599,0.0167877196656,0.457498607955566,0.520092570170718,0.209820416626055,0.077719120548576,0.093651195596634,0.041007054804052,0.209304976281281,0.270496281546783,0.044024607233132,0.006040261698844,0.008770546436679,0.001681578543703
stand_up_chair_1,-3.396766976,3.0636328217,-8.363245864,-0.49899749639,0.05117034892,0.22410888659,0.958909742992728,2.47087790681593,1.51558146684706,0.480570912639788,0.1402356186478,0.273081445025283,0.91950789520638,6.10523763039108,2.2969871826503,0.230948402075438,0.019666028737531,0.074573475617097
stand_up_chair_1,-0.7592919915,7.248539432,-4.14882263392,-0.611341856238,0.00065917919,0.290203856996,2.07718716079808,2.93390655348637,3.92584808399296,0.541260668370022,0.176248724565314,0.298629915043131,4.31470650098438,8.60780766459028,15.4122831785912,0.292963111124362,0.0310636129109,0.089179826158667
stand_up_chair_1,1.1328411855,9.67585143,-0.49630981252,-0.1817031856099,0.01046447716,0.096105956661,0.622699038946355,0.413104397695258,0.750717614595859,0.406181395808145,0.156490189355579,0.204400930732039,0.387754093104714,0.170655243395162,0.563576936864497,0.164983326300653,0.024489179364545,0.041779740484124
standing,1.179639283,9.7165558,-0.406188965,-0.0034133910488,-0.010673523032,0.007655334413,0.22062088536262,0.093710727441802,0.119990478877818,0.026211644834477,0.056694093157886,0.020871645665264,0.048673575058186,0.008781700437672,0.014397715021328,0.000687050324929,0.003214220198995,0.000435625592776
standing,1.185066527,9.72412538,-0.4553198248,0.0104827881651,-0.004521179183,-0.007266235387,0.083075766855499,0.030617123479883,0.10319318268028,0.011138008080552,0.013596154572847,0.00770231844455,0.006901583038629,0.000937408250182,0.010648832951686,0.000124055224002,0.000184855419169,5.93257094212525E-05
standing,1.0682379126,9.729790635,-0.6366088876,0.015428161716,-0.001145935032,-0.00953063968888,0.078705985201322,0.025997866663436,0.13438453377117,0.010825883274972,0.017653745371649,0.006399658217875,0.006194632106511,0.00067588907105,0.018059202916895,0.000117199748683,0.000311654725647,4.09556253056151E-05
standing,1.0026348896,9.734313365,-0.7458441159,0.0063171386953,0.002058410605,-0.00483093262784,0.051404167728483,0.025349375911655,0.06928674693831,0.015009765124229,0.013528654795767,0.008047900166899,0.002642388459858,0.00064259085911,0.004800653301293,0.000225293049085,0.000183024500583,6.47686970963708E-05
standing,0.969857181,9.73888369,-0.7755749504,0.0041381835743,-0.003901672433,-0.0050659179394,0.055254261201014,0.028031834680672,0.064556801285008,0.011016937559875,0.019070257512013,0.00893262372349,0.00305303338087,0.000785783755565,0.004167580592152,0.000121372913198,0.000363674721574,7.97917665854476E-05
standing,0.8952801525,9.736408085,-0.8697186267,0.00941467289,-0.003057861378,-0.00808868406988,0.074543038658048,0.030443997083406,0.087497697088461,0.011277842807925,0.020816295530745,0.008498476904809,0.005556664612375,0.000926836958414,0.007655846995784,0.0001271897384,0.000433318159623,7.22241097015788E-05
standing,0.83203369,9.737931525,-0.9593872065,0.0046295166422,0.000231933604,-0.00297241216588,0.038397084193794,0.040081734877369,0.059436017972195,0.015844585913124,0.012618417049175,0.01104055229214,0.001474336074585,0.00160654547078,0.003532640232391,0.000251050902758,0.000159224448827,0.000121893794915
standing,0.8522192362,9.7409546,-0.9303228767,-0.0050582885396,0.003981018058,0.00217590327236,0.048941332840482,0.043078994097583,0.086696224394133,0.016919999597568,0.007989372425653,0.011650258226348,0.002395254060203,0.00185579973246,0.007516235324198,0.000286286386382,6.38300717557839E-05,0.000135728516741
standing,0.8880676241,9.74100221,-0.8601257337,-0.0059448242154,0.002603149372,0.00180206296716,0.03628257251654,0.031776945592803,0.059817088797621,0.011182801081803,0.005926399034324,0.007503200912965,0.001316425068418,0.001009774271208,0.003578084112223,0.000125055040035,3.51222055140405E-05,5.62980239403144E-05
standing,0.8804742428,9.741073605,-0.8557458513,0.0034652709874,0.001470947234,-0.00275878907896,0.045708432403198,0.033885508498822,0.048713699094118,0.005958928996051,0.013400896470667,0.004911218707888,0.002089260792758,0.001148227686224,0.002373024479432,3.55088347799729E-05,0.000179584026218,2.41200691967128E-05
standing,0.8516003437,9.737312625,-0.9011871346,0.0041915893583,0.000840759277,-0.00353851319952,0.047497960125262,0.035989249434245,0.056315635625537,0.00566353442641,0.01472800411318,0.004862013481276,0.002256056216061,0.00129522607484,0.003171450815908,3.20756221991315E-05,0.000216914105158,2.3639175092114E-05
standing,0.8256304933,9.7357892,-0.9454144287,-0.0019073486495,0.000263977085,-0.00018463136452,0.036101194278469,0.03168698509864,0.037358537437066,0.006939636116681,0.008435651787921,0.005308881016817,0.001303296228332,0.001004065024641,0.001395660319437,4.81585494319386E-05,7.11602210870563E-05,2.81842176507223E-05
standing,0.8505767821,9.743001745,-0.8975451653,-0.0065750122545,0.000338745136,0.0033294677658,0.049080189597305,0.029449790736982,0.070077906019926,0.006768740499351,0.007793493682523,0.005000280305214,0.002408865010907,0.000867290174452,0.004910912912138,4.58158479475539E-05,6.07385437795193E-05,2.50028031307139E-05
standing,0.9002075203,9.746524695,-0.8211352525,-0.0061691284904,-0.002844238303,0.00403442381068,0.046704876630645,0.028512920506546,0.042124959163155,0.006624254478895,0.009140717716692,0.004796209962267,0.002181345501084,0.000812986635813,0.001774512184497,4.38807474011603E-05,8.35527203762388E-05,2.30036300021525E-05
standing,0.9317712414,9.74400147,-0.7839538578,-0.0045455933227,-0.006988525413,0.00178070067904,0.048580281618347,0.030270447837402,0.041562959840815,0.006668917497587,0.008961603908191,0.005606682668521,0.002360043762118,0.000916300012277,0.001727479630729,4.44744605896165E-05,8.03103446073041E-05,3.143489054549E-05
standing,0.9223925786,9.745167885,-0.7847393802,0.003572082516,0.001620483382,-0.00383758544852,0.050111018556425,0.030702666158112,0.063349374018504,0.009957341365969,0.013801103590976,0.006071425348322,0.002511114180762,0.000942653709216,0.004013143188536,9.91486470784449E-05,0.000190470460329,3.68622057602446E-05
standing,0.8713098134,9.743239795,-0.8656957985,0.007833862313,0.002517700172,-0.0046920776572,0.049492314569543,0.028712522422967,0.087428539807274,0.007670173576531,0.01278948070142,0.0050222530469,0.002449489201451,0.000824408943889,0.007643749572832,5.88315626941148E-05,0.000163570816612,2.52230256670958E-05
standing,0.8433880599,9.74028811,-0.9212298569,0.0026000976367,-0.003207397466,-0.00261993410496,0.034773770819816,0.027302416875162,0.041206713623167,0.00716252881569,0.008141773414044,0.004145127342792,0.001209215137029,0.000745421967225,0.001697993247622,5.13018190355854E-05,6.62884743256344E-05,1.71820806879604E-05
standing,0.8264398186,9.74147829,-0.9320843507,0.0006347656199,0.000765991219,-0.0019042968954,0.034794897485724,0.028095878306956,0.039143298623523,0.004897025629985,0.007850362610947,0.003582068791143,0.001210684891042,0.000789378377839,0.00153219782713,2.39808600207276E-05,6.16281931233478E-05,1.28312168244828E-05
standing,0.8180371076,9.740335725,-0.945366822,-0.0004653930963,-0.001210022,-5.64575328399997E-05,0.053909291751966,0.033584674933453,0.038802209622148,0.007127845074847,0.012548334916263,0.005221419797869,0.002906211737199,0.001127930390386,0.001505611471561,5.08061754110218E-05,0.000157460709171,2.726322470558E-05
standing,0.8267492658,9.74304931,-0.9396777348,-0.0003479004232,-0.001861572304,6.10351651600003E-05,0.054817900635956,0.038340593253551,0.03839523351845,0.007971849621207,0.011641867071252,0.005984681188403,0.003005002230134,0.001470001091034,0.001474193956936,6.35503863831377E-05,0.000135533068905,3.58164089268193E-05
standing,0.8334857163,9.740906985,-0.939415892,-0.0004119873205,-0.000729370117,0.00019989013492,0.042179712792379,0.036111585427507,0.035958127904801,0.007712007481611,0.007135835304936,0.006452873135898,0.001779128171248,0.001304046602088,0.001292986962418,5.94750593964307E-05,5.09201454991763E-05,4.16395717079977E-05
standing,0.8384368885,9.73236146,-0.9486517352,-0.0005508423313,-0.001594543446,0.00015716551768,0.056595946603978,0.031751289441937,0.05448710433721,0.009861749845291,0.008089596889239,0.008283461487491,0.003203101172,0.001008144381226,0.002968844539054,9.72541100110918E-05,6.54415778303833E-05,6.86157342147509E-05
standing,0.8543615729,9.735336885,-0.9303466826,-0.0026016235974,-0.002096557618,0.00147094728424,0.055894831191951,0.028718495479663,0.057424063388535,0.010166383117086,0.008188292309364,0.008245513060763,0.003124232153977,0.000824751982615,0.00329752305605,0.000103355345683,6.7048130943587E-05,6.79884856352076E-05
standing,0.878498536,9.73859806,-0.9012347394,-0.0035095215204,-0.002865600606,0.00219726563704,0.03865521641741,0.028018043103776,0.039503091548418,0.007119149744701,0.006801799330166,0.005403856624612,0.001494225756277,0.000785010739365,0.001560494241883,5.06822930874715E-05,4.62644741278527E-05,2.92016664193575E-05
standing,0.8899243171,9.73621771,-0.8996398923,-6.10352179999998E-06,-0.002427673342,-0.0009323120174,0.028110527762866,0.024437068597776,0.041627630910467,0.004011717235629,0.005316689756277,0.002964307714824,0.000790201771107,0.000597170321652,0.001732859655218,1.60938751786455E-05,2.82671899644956E-05,8.78712022816395E-06
standing,0.8786413566,9.73445619,-0.9136364753,0.002226257305,-0.000686645516,-0.00322875979696,0.033111021663721,0.026037411761081,0.041062669240531,0.003389444167752,0.005125874076837,0.002654294026859,0.001096339755615,0.000677946811216,0.001686142805157,1.14883317663089E-05,2.62745850515886E-05,7.04527678101817E-06
standing,0.850410155,9.73283754,-0.9403918436,0.0018310546658,-0.000259399428,-0.00285491946972,0.034632385523923,0.026795359917144,0.041989960583469,0.003706283498183,0.004045243632902,0.002782219731282,0.001199402127078,0.000717991313089,0.001763156789801,1.37365373689023E-05,1.63639960495342E-05,7.74074663313424E-06
standing,0.8337475567,9.73476563,-0.9619580051,-3.96728677E-05,-0.00143127445036,-0.00035705568362,0.025668741926091,0.030335603642447,0.04383688356945,0.005236602238955,0.005361329204216,0.004425613222995,0.000658884312068,0.000920248848352,0.001921672361081,2.74220030090297E-05,2.87438508359818E-05,1.95860523995486E-05
standing,0.8416503891,9.73409911,-0.95710205,-0.0029815674022,-0.0001083374587,0.00224456783566,0.037976645180506,0.03176754809666,0.046184001401887,0.00613024358465,0.00739573061758,0.005032664755848,0.001442225579166,0.001009177112074,0.00213296198549,3.75798864071483E-05,5.46968313678149E-05,2.53277145447553E-05
standing,0.8565753179,9.735336955,-0.9384161389,-0.0032516479688,0.0020553588733,0.0022735595306,0.038892906592384,0.029376619751612,0.039548184372847,0.006170605189792,0.007205223052902,0.004318070882486,0.001512658183204,0.000862985788031,0.001564058887189,3.8076368408294E-05,5.19152392420676E-05,1.86457361461736E-05
standing,0.8610980219,9.73486088,-0.9293469265,-0.0014572143792,0.00141448973296,0.0013442992995,0.026739685209929,0.027629269995339,0.038799756660437,0.005270800768312,0.005549248606991,0.003080223337558,0.000715010765126,0.000763376560475,0.001505421116909,2.77813407392425E-05,3.07941601021896E-05,9.48777580923683E-06
standing,0.8585034182,9.738002925,-0.9354882824,0.004054260197,0.00239715574198,-0.0025756836272,0.041284525866373,0.028680995498584,0.065785975078931,0.01243727226443,0.006825030212271,0.007738738790016,0.001704412076011,0.00082259950279,0.004327794517086,0.00015468574138,4.6581037398405E-05,5.9888078060098E-05
standing,0.888924559,9.749000255,-0.9366546655,0.0687179567464,0.01257629391566,-0.0345336913523,0.268403608440271,0.165662096248636,0.243361413427866,0.168534759051626,0.097642610735588,0.067689263253891,0.072040497023759,0.027443930133492,0.059224777545609,0.02840396500859,0.009534079431262,0.004581836359855
sit_down_chair_1,-0.3904296891,8.385261853,-3.4750585926,0.507467652461,0.001275634976,-0.257919312393,1.55011334795692,1.78641061290342,2.92253825742256,0.423387090590798,0.139721960474265,0.229472111611769,2.40285139151421,3.19126287789396,8.54122986609847,0.17925662847894,0.019522226238772,0.052657450007564
sit_down_chair_1,-2.8041735816,4.4193255609,-7.586435513,0.5733917234,-0.044097900042,-0.263174439545,1.36351704112649,2.88745222421946,2.11089506825504,0.335720589146219,0.109312174208501,0.220308386717216,1.85917872144234,8.33738034714994,4.45587798918343,0.112708313976685,0.01194915143019,0.048535785257943
sit_down_chair_1,-4.205021967,1.355002443,-9.01189695,0.138497923705,-0.05677642839,-0.013299560702,0.393988900415669,0.69955739989359,0.307446731668256,0.148737635909014,0.068986352852999,0.076876896854935,0.155227253650748,0.48938055574588,0.094523492813493,0.022122884335803,0.004759116879958,0.005910057270044
sit_down_chair_1,-4.507329099,0.8660266133,-8.87304995,0.008956909172,-0.01787567169936,0.020890808042,0.187630342330263,0.186621872095777,0.218178502603628,0.056560924795772,0.064253455584761,0.037990317687759,0.035205145362972,0.034827723144533,0.047601858998361,0.003199138213753,0.004128506554583,0.001443264238017
sitting_chair_1,-4.511875618,0.8378192146,-8.87343081,-0.000527954094,0.00455474849856,-0.000802612333,0.067915965638196,0.037536595977757,0.065793465884769,0.014781602426346,0.021398080569697,0.012982009268706,0.004612578388569,0.001408996037597,0.00432878015313,0.000218495770291,0.000457877852067,0.000168532564653
sitting_chair_1,-4.511185314,0.8335345477,-8.870693345,-0.0016281128084,0.00159606932188,0.002946472158,0.022529139119094,0.020756230458157,0.035452650713375,0.001492854638188,0.002808295604952,0.00172198293925,0.000507562109447,0.000430821102832,0.001256890442605,2.22861497075851E-06,7.88652420479101E-06,2.96522524306909E-06
sitting_chair_1,-4.506686401,0.8309161401,-8.86895566,-0.0021514892754,0.00217285152424,0.0029464721604,0.024744482045619,0.020881865676323,0.032461238667567,0.001407877078929,0.003010692740731,0.001794088055803,0.000612289391706,0.000436052314124,0.001053732015833,1.98211786937444E-06,9.06427077908862E-06,3.21875195197556E-06
sitting_chair_1,-4.504996328,0.8284881591,-8.86743222,-0.0028884887894,0.00227966305758,0.0019210815387,0.026024028290417,0.02898612281537,0.034088804434956,0.003610188651417,0.006260572422412,0.002955742693653,0.00067725004846,0.000840195315868,0.001162046587805,1.30334620988189E-05,3.9194767056264E-05,8.73641487108509E-06
sitting_chair_1,-4.49571288,0.8286071759,-8.87547788,-0.0026321411362,0.0016281127913,0.0017608642528,0.027733052355806,0.032385165152142,0.043946073833729,0.006298733836107,0.00896725377166,0.003842096737546,0.00076912219297,0.001048798921931,0.0019312574054,3.96740479381188E-05,8.04116402053418E-05,1.47617073406591E-05
sitting_chair_1,-4.487952867,0.829630739,-8.883761605,-0.0010299682612,-0.0001144409222,0.0016052246041,0.025948173328445,0.031143166460603,0.044203094997866,0.006516793955003,0.008439835965954,0.004022127619211,0.000673307699083,0.000969896817193,0.00195391360739,4.24686034519646E-05,7.12308311322142E-05,1.61775105852166E-05
sitting_chair_1,-4.488333724,0.8281787131,-8.874954245,0.0004333496251,-0.0007995605583,0.00045623778932,0.025049077204625,0.026500333451741,0.037556335106259,0.003912831057765,0.005220503722183,0.002910956729597,0.000627456268803,0.000702267673053,0.001410478306614,1.53102468866128E-05,2.72536591133273E-05,8.47366908158469E-06
sitting_chair_1,-4.482001942,0.822489626,-8.87319273,0.0009353637736,-0.000746154789,0.00077667235856,0.022193733844781,0.022386381274077,0.034364582177063,0.001324321940402,0.002154787920792,0.001803058215741,0.000492561821973,0.000501150066548,0.001180924508204,1.75382860182896E-06,4.64311098359046E-06,3.25101892935088E-06
sitting_chair_1,-4.482644653,0.8196807878,-8.882261945,0.0007110595685,-0.0011413574124,0.001182556146,0.023984560020801,0.024522596135335,0.033843699419515,0.001304021765309,0.002029560879022,0.001565796412582,0.000575259119391,0.000601357721217,0.001145395990398,1.7004727643984E-06,4.11911736165457E-06,2.45171840565542E-06
sitting_chair_1,-4.486096195,0.8218469241,-8.883428335,0.0006042480465,-0.0011947631778,0.00116119384256,0.023562965756815,0.02295296415996,0.03632502975494,0.001432866134784,0.002281753969255,0.001403408972252,0.000555213355257,0.000526838563728,0.001319507786697,2.05310536020953E-06,5.20640117621101E-06,1.9695567433972E-06
sitting_chair_1,-4.492023328,0.8244177264,-8.87723937,0.0008499145538,-0.0014724731451,0.00132141113276,0.022569306331195,0.021616415699246,0.038051216462631,0.001301500711793,0.002473121834906,0.001386265632714,0.000509373588271,0.000467269427683,0.001447895074286,1.69390410279759E-06,6.11633161028819E-06,1.92173240444277E-06
sitting_chair_1,-4.492356577,0.8210137946,-8.874954255,0.0008392333997,-0.0007675171039,0.00089416503832,0.020452621337929,0.023763331471675,0.038494007808018,0.001219257315927,0.002683719029478,0.001574640009656,0.000418309719593,0.000564695922633,0.001481788637124,1.48658840244081E-06,7.20234782918353E-06,2.47949116000965E-06
sitting_chair_1,-4.483406361,0.8183953855,-8.87576359,0.0006042480467,-0.0001373291227,0.00047760009892,0.017541685454996,0.024538507428209,0.036206547381793,0.001106065814209,0.002359250613452,0.001463226919485,0.000307710728602,0.000602138346804,0.00131091407331,1.22338158536175E-06,5.5660634570746E-06,2.14103301790482E-06
sitting_chair_1,-4.48609618,0.8193475353,-8.87231201,0.0004760742184,-0.0013549804824,0.00104370117112,0.020758151228115,0.02212365336378,0.03056595226132,0.001163345026409,0.002316961951075,0.00143768356752,0.000430900842409,0.000489456038161,0.000934277437641,1.35337165046985E-06,5.36831268273071E-06,2.06693404031609E-06
sitting_chair_1,-4.4900476,0.8168719486,-8.87374019,0.0005722045889,-0.000746154803,0.00058441161344,0.020666741625715,0.02205047705439,0.036782515798866,0.001199004445391,0.002813522767943,0.001483562428094,0.000427114209424,0.000486223538326,0.001352953468494,1.43761166006845E-06,7.91591036573358E-06,2.20095747805076E-06
sitting_chair_1,-4.488214715,0.8144677737,-8.87933407,0.0006149291985,-3.05175960999999E-05,0.00036010741588,0.02240489382267,0.024783994157499,0.040261035654587,0.00114914246547,0.002508400240726,0.001416689651735,0.000501979267205,0.000614246366399,0.00162095099198,1.32052840594634E-06,6.29207176767484E-06,2.00700956933191E-06
sitting_chair_1,-4.490095211,0.8172766124,-8.881119395,0.0006042480478,-0.0013870239416,0.0012252807564,0.023063321796604,0.023420965864968,0.035272723351877,0.001176739886983,0.002396831206324,0.001432986750697,0.000531916812294,0.000548541642048,0.001244165012658,1.3847167616178E-06,5.74479983160652E-06,2.05345102767271E-06
sitting_chair_1,-4.490261841,0.8162768548,-8.880928965,0.0007217407213,-0.0010559082255,0.00096893310164,0.020354794977205,0.022098117961262,0.035283057036411,0.001104136641539,0.002549954603946,0.00144324368114,0.000414317678564,0.00048832681743,0.001244894113835,1.21911772318905E-06,6.50226848218783E-06,2.0829523231513E-06
sitting_chair_1,-4.488357549,0.8148010238,-8.878905645,0.0008712768586,-0.0004791259959,0.000691223142,0.019014406326669,0.021558828086479,0.035536384642306,0.001190129238513,0.002369388750536,0.00138389441469,0.000361547647956,0.000464783068462,0.001262834633446,1.41640760436331E-06,5.61400305116584E-06,1.91516375100882E-06
sitting_chair_1,-4.486215212,0.8182763676,-8.87607303,0.0009353637734,-0.000425720223,0.00075531005376,0.019302665312069,0.021329617881723,0.036449511475563,0.001196310266009,0.002651579058902,0.001609349466762,0.00037259288815,0.00045495259898,0.001328566886807,1.4311582525579E-06,7.03087150560519E-06,2.5900057061674E-06
sitting_chair_1,-4.483549199,0.8159198005,-8.878501005,0.0006896972672,-0.0005432128917,0.00068054199012,0.021070392694732,0.021635957781838,0.034804568850311,0.001228860130857,0.002590130756776,0.001549557459975,0.00044396144831,0.000468114669137,0.001211358012856,1.51009722121067E-06,6.70877733719543E-06,2.4011283217643E-06
sitting_chair_1,-4.484882209,0.8105877696,-8.88219062,0.0008499145534,-0.0010238647415,0.00093688964512,0.020350348115694,0.024095453975651,0.030722895172467,0.001209721150687,0.002183476477788,0.001369538838417,0.00041413666843,0.000580590902293,0.000943896287778,1.46342526241947E-06,4.76756952905217E-06,1.87563662993169E-06
sitting_chair_1,-4.485120242,0.806255493,-8.87890567,0.0011489868216,-0.0006286621055,0.00052032469824,0.021341765820409,0.02434203271379,0.033358212034709,0.001128907726925,0.003135344083753,0.001418112454394,0.000455470968333,0.000592534556639,0.001112770310153,1.27443265591043E-06,9.83038252352204E-06,2.01104293330653E-06
sitting_chair_1,-4.486262822,0.8075646944,-8.877406005,0.0009140014687,-0.0009597778312,0.000349426262,0.021298157691254,0.022039612642304,0.03579036760464,0.001148741268842,0.003242082936875,0.001277911449659,0.000453611521042,0.000485744525423,0.001280950413275,1.31960650274016E-06,1.05111017695786E-05,1.63305767316881E-06
sitting_chair_1,-4.486048591,0.8084454339,-8.883285575,0.0009460449249,-0.0009597778362,0.00070190429332,0.019607037569798,0.021985750846793,0.035099386310456,0.00108417803038,0.002282561910335,0.001366337602916,0.000384435922263,0.000483373240297,0.001231966919371,1.17544200155894E-06,5.21008887451085E-06,1.86687844514165E-06
sitting_chair_1,-4.486667481,0.8087786882,-8.88349979,0.0010742187553,-0.0003829956145,0.00059509277536,0.021229564946844,0.022887997332782,0.034871295381036,0.001156987907543,0.002325575331453,0.00149134859041,0.000450694427832,0.000523860421905,0.001216007241551,1.33862101819988E-06,5.40830062226464E-06,2.22412061811871E-06
sitting_chair_1,-4.485762927,0.8082073983,-8.879215075,0.000956726077,-0.0008850097711,0.000477600098,0.020560664454852,0.021082891340142,0.03465919861018,0.001135016030711,0.002287327939487,0.001517355650013,0.000422740922825,0.00044448830726,0.0012012600483,1.2882613899717E-06,5.23186910275893E-06,2.30236816862708E-06
sitting_chair_1,-4.484882187,0.8091595456,-8.878810435,0.0007751464881,-0.0012374877951,0.0006912231402,0.022113290189111,0.020104049361876,0.03226728184923,0.001159375908302,0.002021225429532,0.001464801202127,0.000488997602988,0.000404172800745,0.001041177477938,1.3441524967508E-06,4.08535223698754E-06,2.1456425617516E-06
sitting_chair_1,-4.489452516,0.8134918216,-8.87547795,0.0008605957038,-0.0004684448339,0.00057373046568,0.023329944346082,0.021859706649156,0.033086626635068,0.001089268092207,0.002416177393242,0.001491194033622,0.000544286303191,0.000477846774787,0.001094724862088,1.18650497670006E-06,5.83791319561457E-06,2.22365964590984E-06
sitting_chair_1,-4.486881728,0.7919494632,-8.866313495,0.0051330566372,-0.0037689209007,-0.00557861329456,0.045683835602678,0.065604311343311,0.063159002500883,0.011995790505832,0.01103614662608,0.014381708382449,0.002087012835373,0.00430392566683,0.003989059596907,0.00014389898986,0.000121796532352,0.000206833535998
sitting_chair_1,-4.37286194995,0.94119872876,-8.8084585616,-0.0396743775462,0.0342239380775,0.00505981455536,0.496074797897247,0.340689010018898,0.877192104250149,0.059558679065964,0.059397788610085,0.028748412945263,0.246090205108794,0.116069001547657,0.769465987758804,0.003547236252082,0.003528097291768,0.000826471246871
stand_up_chair_1,-3.70226379495,1.91919799216,-9.0254532136,-0.29984588615,0.105702209611,0.087614441565,0.851979586155592,1.31706807626806,1.06352130142396,0.412426831558235,0.092771650381719,0.112114379291822,0.725869215225853,1.73466831752445,1.13107755858251,0.170095891389164,0.008606579114548,0.012569634043991
stand_up_chair_1,-1.48978027275,5.68154113,-5.88220888527,-0.63861999611,0.03641357449,0.285044860965,2.01171632662625,3.27442663272831,4.01562742052032,0.516406269806004,0.197053898718474,0.260665334148386,4.04700257881461,10.7218697731205,16.1252635804347,0.266675435494951,0.038830239000151,0.06794641642669
stand_up_chair_1,0.64772155495,9.184328616,-1.44979126207,-0.3684829722345,-0.045393371614,0.207595824817,1.17635867915392,1.10448060599592,2.26892445975166,0.535446539669212,0.166003604826729,0.296200907394214,1.38381974202076,1.21987740902112,5.14801820405936,0.286702996843733,0.027557196815469,0.087734977541156
stand_up_chair_1,1.1570733627,9.730314345,-0.4555102539,0.0102920533683,-0.0158279422363,0.000872802736,0.186008252198344,0.089215243890197,0.208121677369769,0.035027368677617,0.069235444920759,0.032370537112266,0.034599069885883,0.007959359742387,0.043314632591206,0.001226916556478,0.004793546833375,0.001047851672937
standing,1.169784545,9.728838495,-0.4862170405,-0.0012542724458,-0.0037582398643,0.00036010736868,0.051639029971181,0.028431942909402,0.070089827612453,0.014233782436571,0.016814045374285,0.010186432574431,0.002666589416365,0.000808375377604,0.004912583934743,0.000202600562452,0.000282712121849,0.000103763408593
standing,1.1079425057,9.729957245,-0.5860021966,0.0116699219542,-0.0058837891019,-0.0046493530552,0.073793815257954,0.029489303795973,0.12359295155782,0.015165215193728,0.012991592775319,0.009229689098675,0.005445527170325,0.000869619038371,0.015275217674774,0.000229983751872,0.00016878148284,8.51871608582059E-05
standing,1.0574786383,9.732528045,-0.6728619391,0.0084655762749,-0.0005859375325,-0.00285491944876,0.07814783063845,0.0388021802861,0.089857408805888,0.017715302611491,0.017381942277879,0.01006554254178,0.006107083433496,0.001505609194955,0.008074353917309,0.000313831946617,0.000302131917352,0.00010131514666
standing,1.0580737312,9.72655333,-0.726824952,0.0081451416181,-0.0007461548289,-0.00219268800276,0.07466568350054,0.037157169386938,0.088569383155921,0.01370566698328,0.020736798647488,0.007531163091687,0.005574964292603,0.00138065523685,0.00784453563262,0.000187845307457,0.000430014818146,5.67184175135838E-05
standing,1.0322943125,9.720126345,-0.8297998054,0.0110397338847,-0.0063003539853,-0.00556793213008,0.056620333612056,0.030958673915798,0.067507289541215,0.01074609374879,0.020122860174844,0.007218581514003,0.003205862178341,0.000958439490625,0.004557234141201,0.000115478530858,0.000404929501616,5.21079190743022E-05
standing,0.9642633055,9.72272096,-0.9193017572,0.0100143432761,-0.007731628392,-0.0068176269712,0.057142653417783,0.031536212434926,0.07226812837303,0.010312376879447,0.014663734092924,0.006000680525041,0.003265282839625,0.000994532694741,0.005222682378541,0.000106345116904,0.000215025097548,3.60081667636113E-05
standing,0.9087054439,9.71743653,-1.0081610097,0.0066390991433,-0.00490112309,-0.00347442629276,0.04126445661323,0.028420397708036,0.068986406265392,0.011955157601475,0.012716757649247,0.006411738598247,0.001702755379585,0.000807719005883,0.004759124249414,0.000142925793276,0.00016171592511,4.11103918522551E-05
standing,0.9051586901,9.71910279,-1.0117553683,-0.0021194457759,0.0016036986917,0.00065917967628,0.035590859808835,0.026409082790859,0.058970047677218,0.00506447931776,0.009131478272713,0.003299390195206,0.001266709301932,0.000697439653854,0.003477466523053,2.56489507600177E-05,8.33838954450294E-05,1.08859756602223E-05
standing,0.936079711,9.724196795,-0.9634100306,-0.0025253295786,0.0008560180453,0.00041351316864,0.032178625884406,0.024076448343534,0.041558612126676,0.00329958225995,0.005937229852214,0.002852572526797,0.001035463963809,0.000579675364839,0.001727118241896,1.08872430901784E-05,3.5250698318024E-05,8.13717002063575E-06
standing,0.9546942134,9.724744285,-0.9424151609,-0.0008590698255,-0.0035446167684,0.00055236814452,0.036933961021429,0.024910518361663,0.03883370229993,0.004280800798965,0.01307648381088,0.003109138584644,0.001364117476732,0.000620533925047,0.00150805643432,1.83252554804199E-05,0.000170994428856,9.666742738523E-06
standing,0.9458154298,9.72764831,-0.9412963883,0.0040649414207,-0.0016540527671,-0.00317535403552,0.043638290996557,0.025701029556254,0.040898039837141,0.005632490435767,0.01527678272995,0.004583351095481,0.0019043004411,0.000660542920251,0.00167264966252,3.17249485090089E-05,0.000233380090578,2.10071072644512E-05
standing,0.9139184564,9.723696895,-0.9864520276,0.0062438965196,6.56127982999998E-05,-0.00482025151632,0.049049270751193,0.027775137448159,0.054035614585433,0.007905073225466,0.010307011588565,0.006082575745036,0.002405830961224,0.000771458260264,0.002919847643625,6.24901826999778E-05,0.000106234487887,3.69977276941036E-05
standing,0.8930664032,9.72229251,-1.0230383275,0.0004333496386,-0.001579284704,-0.00096435550372,0.037530944418162,0.027002768841846,0.041147102537153,0.008861748503529,0.00772674949774,0.006129127501848,0.001408571788919,0.000729149525126,0.001693084047203,7.85305865398025E-05,5.97026578008202E-05,3.7566203933909E-05
standing,0.9099432369,9.724125385,-0.9958306858,-0.0023544311494,-0.0008529663331,0.0005630493108,0.029576844090649,0.023972073419704,0.047923653036263,0.003738773202109,0.00461042562448,0.002061867373964,0.000874789706363,0.00057466030404,0.00229667652034,1.39784250568118E-05,2.12560244388572E-05,4.25129706781658E-06
standing,0.9245587182,9.72581546,-0.9655523677,-0.0002288818495,-0.0012481689682,-0.00043029785688,0.020956007667212,0.023564685225592,0.033484739698787,0.002886487369504,0.00333931523631,0.00181811089281,0.000439154257348,0.000555294389781,0.001121227792696,8.33180933430701E-06,1.11510262474514E-05,3.30552721855457E-06
standing,0.9257012943,9.72902894,-0.9578399667,0.0004760742101,-0.0014297485558,-0.00092163086316,0.022396197456438,0.022303772922019,0.03260817845507,0.00235053999181,0.003598678871995,0.002320738899253,0.000501589660508,0.000497458286557,0.001063293302158,5.52503825310039E-06,1.29504896237442E-05,5.38582903850428E-06
standing,0.9322949204,9.73055235,-0.9526269554,-0.0003250122169,-0.0011520385878,-0.0001846313528,0.025256952257907,0.021822205408284,0.030477415103085,0.002766601954746,0.004578118389805,0.002370725886237,0.000637913637358,0.000476208648881,0.000928872831366,7.65408637600351E-06,2.09591679910699E-05,5.62034122767467E-06
