label,TYPE_ACCELEROMETER_X(Mean),TYPE_ACCELEROMETER_Y(Mean),TYPE_ACCELEROMETER_Z(Mean),TYPE_GYROSCOPE_X(Mean),TYPE_GYROSCOPE_Y(Mean),TYPE_GYROSCOPE_Z(Mean),TYPE_ACCELEROMETER_X(S.D),TYPE_ACCELEROMETER_Y(S.D),TYPE_ACCELEROMETER_Z(S.D),TYPE_GYROSCOPE_X(S.D),TYPE_GYROSCOPE_Y(S.D),TYPE_GYROSCOPE_Z(S.D),TYPE_ACCELEROMETER_X(varience),TYPE_ACCELEROMETER_Y(varience),TYPE_ACCELEROMETER_Z(varience),TYPE_GYROSCOPE_X(varience),TYPE_GYROSCOPE_Y(varience),TYPE_GYROSCOPE_Z(varience)
walking,3.224259024,9.0658992097,0.065076892,-0.07509460655,-0.03360138185,-0.11742248517,1.87878076711988,3.17459863103845,3.5719252582212,1.43109130336405,1.00991804566749,0.474390622212434,3.52981717089956,10.0780764681912,12.7586500503186,2.04802231856421,1.01993445896485,0.225046462443101
walking,3.4061193859,9.1831265383,-0.44963074902,0.21572112791,0.13137969642,-0.14954071018,2.52125499401683,4.86533636670701,4.99578287347579,1.95351470154951,1.3373362235943,0.585894557415483,6.35672674485482,23.6714979612018,24.957846518914,3.81621968917006,1.78846817493747,0.343272432409085
walking,3.3279718065,9.23090057,-0.3956439179,0.27906036136,0.11738738828,-0.20207061846,2.59017957396796,5.16677128408121,4.90901606275112,1.92345142844849,1.31097363137883,0.535258896519814,6.70903022540083,26.6955255020062,24.0984387043485,3.69966539760054,1.71865186217061,0.286502086303609
walking,3.31549865456,9.4331071074,-0.4744580221,0.2228240981,0.0741714481,-0.20329895086,2.59235261509004,4.96734139223087,4.89542080489805,1.93928530694708,1.49677250636322,0.607313388616294,6.72029208096419,24.6744805069701,23.9651448570287,3.76082750174082,2.24032793580482,0.368829551992606
walking,3.17508055366,9.5269413295,-0.0386596719,0.0429321317,0.0096786451,-0.14363403845,2.56975391733277,5.30814999049031,5.24375609633783,2.0499384413947,1.69630937101763,0.664022471924367,6.6036351956471,28.1764563215423,27.4969779978802,4.20224761350773,2.87746548220222,0.440925843220547
walking,2.9677502322,9.0232369649,0.56985840952,-0.00879669667,-0.06584778106,-0.15498810295,2.68832786218108,5.6405667307653,5.15437014744178,2.14343471102473,1.72829949598646,0.666493218501843,7.2271066945791,31.8159930442164,26.567531616839,4.59431236042565,2.98701914782704,0.444213210308946
walking,3.02326048937,9.5231387344,0.43634338752,-0.00725861077,-0.11445769852,-0.16884155225,2.80151462719108,5.20493556753586,5.11035979636102,2.16362899112211,1.74489970598012,0.697854511615175,7.84848420636559,27.0913542621998,26.1157772482631,4.68129041122408,3.0446749839295,0.487000919381655
walking,3.30064513117,9.8243151684,-0.0398498593,-0.1185455286,-0.15837860176,-0.16978149363,2.82182333182229,5.21615302002699,5.59699238647584,2.15644035138218,1.74968797080024,0.745978464527984,7.96268691601663,27.2082523283367,31.3263237742685,4.65023498906932,3.06140799516305,0.556483869539529
walking,3.17012939175,9.49543716595,-0.21733032155,-0.18213042895,-0.08072662456,-0.13742828276,2.75608750460082,5.57321451210863,5.71976258060453,2.10289471746458,1.84877797787233,0.76096039382829,7.59601833301675,31.0607199979783,32.7156839784838,4.42216619274045,3.41798001146572,0.579060720975307
walking,2.82657638195,9.04511262125,-0.26397368717,-0.24315185675,-0.037339785,-0.10639953459,2.79296099714979,5.72948995443834,5.51938335368425,1.99558908214858,1.91391308924572,0.719449844181125,7.80063113159995,32.8270551380099,30.4635926049268,3.98237578479061,3.66306331318611,0.517608078292245
walking,3.03119308147,8.8128895441,-0.15978487032,-0.16019134884,-0.0003509604,-0.12962036058,2.88640863736502,5.68469871324869,5.39225716863359,2.0727505782331,1.84329208840902,0.707362181217905,8.33135482185539,32.3157994604113,29.0764373726803,4.29629495956564,3.39772572319129,0.500361255417351
walking,3.23763671479,9.00835967806,0.002044672,0.05637969572,0.03347625,-0.18638000361,2.79427157276289,5.34281719703585,5.23999993461034,2.17640441706475,1.7610547326607,0.683056019215877,7.80795362235082,28.545695600942,27.4575993147164,4.73673618661894,3.10131377142665,0.466565525387041
walking,3.23794617032,9.38530929966,-0.1100945945,0.14383697841,0.08189392034,-0.18862304506,2.83608296031532,5.33165276444495,5.28268706543637,2.15913497362578,1.77987801381579,0.649719302985045,8.04336655779091,28.4265212006135,27.9067826313287,4.66186383433399,3.16796574406485,0.422135172671373
walking,3.11685668834,9.61231339637,0.09116576097,0.18376313005,0.0457168592,-0.12363891468,2.84772682507162,5.45948366510889,5.34408313940864,2.09729701118255,1.75635027784681,0.672223978668811,8.10954807023251,29.8059618895908,28.5592246009117,4.39865475311524,3.08476629849257,0.451885077497326
walking,3.00312254824,9.26621337787,-0.29831056311,0.29691924905,0.08625183355,-0.15425109785,2.63839255564067,5.32901754665545,4.97631487747336,1.91168112882819,1.70462456785352,0.649355984111834,6.9611152776601,28.3984280125616,24.7637097597627,3.65452473831782,2.90574491732981,0.421663194101849
walking,2.9090264916,9.3294895905,-0.58926332608,0.197370907,0.18652649174,-0.21532592781,2.4235881868322,4.99111369637973,5.12100973510007,1.96737512974908,1.91394605146997,0.637323737099954,5.8737796993526,24.9112159301894,26.2247407069896,3.87056490115521,3.6631894879375,0.406181545871052
walking,2.85722961201,9.54845400412,0.09456968539,-0.01674347033,0.0027679457,-0.15834198118,2.70410642825878,5.10591350696438,5.55469318383672,2.13563956649875,2.11873779311011,0.696528659225551,7.31219157535048,26.0703527406013,30.8546163665621,4.56095635799498,4.48904983595309,0.485152173122544
walking,2.89933837196,9.14839097962,0.41225403377,0.00653076169,-0.04896088068,-0.13862457362,2.99658950066382,5.27522998894975,5.43588798163894,2.14527950548643,2.11615331300062,0.67702016565302,8.97954863548866,27.8280514363147,29.5488781489266,4.60222415666009,4.4781048441235,0.458356304700843
walking,2.86534667671,9.3754069592,0.30042422168,-0.01039886255,-0.06585846199,-0.15607757049,3.17739376088254,5.30122160339809,5.82490648567878,2.14176519558974,2.16376479597803,0.687875210567789,10.0958311116953,28.1029504883346,33.9295355669027,4.58715815303954,4.68187809231383,0.47317230531368
walking,2.99812378354,9.8274751285,-0.0207830603,-0.10749053717,-0.14891509846,-0.12752685282,3.30337568966617,5.39396365051369,5.99845908859813,2.16829699119957,2.17436709209311,0.697446407641862,10.9122909470775,29.094843863063,35.9815114375855,4.7015118420451,4.72787225117743,0.486431491532538
walking,3.04813537555,9.677678381,-0.2862896667,-0.09341277668,-0.09990997446,-0.14223480493,3.11131665060577,5.37277904473219,5.34807244198685,2.12438166467165,1.951137673725,0.720408500132205,9.68029130033672,28.8667546635133,28.6018788447392,4.51299745719311,3.80693822182902,0.518988407062733
walking,2.86175231817,9.4904681402,-0.14265808276,-0.11723174489,-0.07800293076,-0.16028595026,2.8104845424394,5.18033458837625,5.19799242617663,2.03829032749122,1.76078042084252,0.758148397621419,7.89882336329078,26.8358664475274,27.0191252625896,4.15462745914427,3.10034769042238,0.574788992815925
walking,2.7649426308,9.2657967985,-0.06263001241,-0.19303588114,-0.114863588,-0.12758026291,2.8785141979337,5.32677086552178,5.76324453787111,2.04771513978923,1.73931058306086,0.685905148897927,8.28584398770587,28.3744878537717,33.2149876033012,4.19313729372203,3.0252013043475,0.470465873284688
walking,2.9006475791,9.0498971365,-0.20833252975,-0.17243194338,-0.06142578343,-0.10114441129,3.09519868762126,5.36586349080356,5.87267650541385,2.08873196049437,1.89198190726076,0.667342750008942,9.5802549158524,28.7924910019386,34.4883293372398,4.36280120279065,3.57959553740207,0.445346345989497
walking,3.05027769716,9.104496899,-0.171317761,-0.07849121286,-0.06011200207,-0.14124145682,2.94687151828437,5.08179250940382,5.57338655131066,2.14861639356637,1.92488465936323,0.698333471586147,8.68405174527563,25.8246151086328,31.0626376503306,4.61655240670217,3.70518095185191,0.48766963753756
walking,3.09821837176,9.2569001804,-0.0980975318,0.04295349206,-0.02241821274,-0.20780639871,2.74487968140742,5.24965921277089,5.49265931952119,2.16857903042494,1.8495363290076,0.702721895650653,7.5343644654033,27.5589218502303,30.1693064003229,4.70273501119876,3.4207846323189,0.493818062626848
walking,3.06053711429,9.4722404494,-0.1703893915,0.11124878084,0.08219299462,-0.17253723101,2.81249599605536,5.38442439223722,5.49119910482318,2.09966544368817,1.8594051847576,0.688142154318456,7.91013372782744,28.9920260357191,30.1532676088109,4.40859497541825,3.45738764110344,0.473539624550046
walking,2.89660095418,9.5792738415,-0.1135937408,0.14684906062,0.05412292432,-0.12223968382,3.04025112060265,5.63002319743957,5.53778942746045,2.08050766229812,1.79953439252789,0.657057723830892,9.2431268763257,31.6971612037077,30.6671117428927,4.32851213288119,3.23832402989071,0.431724852445833
walking,2.89138792973,9.2330845955,-0.3935015955,0.1964630124,0.06163177394,-0.1690338136,2.98345703442078,5.69936243121014,5.27216912080413,2.05061152761445,1.67225073124134,0.614868261649283,8.90101587623486,32.4827321222896,27.7957672383606,4.20500763718527,2.79642250813721,0.378062979183611
walking,2.8541589227,9.424769912,-0.70778197965,0.20937652183,0.1405654928,-0.1888259897,2.7092374181751,5.28549256612194,4.95975252525078,1.99069519187104,1.75457399690924,0.608979863532562,7.33996738804007,27.9364316665302,24.5991451117314,3.96286734693846,3.07852991063005,0.370856474188138
walking,2.70386229326,9.585540144,-0.12359129995,0.09102935265,0.05880127456,-0.12987671092,2.73066608927609,5.03711647031514,5.20081155116494,2.02815477740824,1.8089474453297,0.679990055164352,7.45653729112238,25.3725423355201,27.0484407907307,4.11341180112386,3.27229085996485,0.462386475122418
walking,2.68017760253,9.1913149795,0.5702392597,-0.0092239395,-0.07433928788,-0.11547851708,2.90635282088309,5.11997137153858,5.06818864157045,2.07416419043239,1.84706258377135,0.719109642821962,8.4468867194551,26.2141068453747,25.6865361065437,4.30215708887207,3.4116401883681,0.517118678399531
walking,2.67322691683,9.611010127,0.43191588473,0.0002822911,-0.02490691727,-0.11880035364,2.75613225727204,5.23413365225451,5.18959773431486,2.06059662703397,2.0064959072329,0.746792884132084,7.5962650195755,27.3961550896632,26.9319246440059,4.24605845934376,4.02602582574236,0.557699611790316
walking,2.80088622694,9.9134183975,-0.14858524051,0.05705261362,0.27099304301,-0.11328887928,2.85606497590905,5.47862959056544,5.89468909256825,2.06312650013692,2.06900972166961,0.7910462915474,8.15710714661434,30.0153821906193,34.7473594980431,4.25649095556722,4.28080122836337,0.625754235370895
walking,2.79193603324,9.476417937,-0.21737794808,0.01821594247,0.43765106348,-0.18534393336,2.92354375651007,5.45871074996839,5.93229818803984,2.01813377362645,2.10454103548273,0.776946400516817,8.54710809622899,29.7975230518204,35.1921617918207,4.07286392825173,4.42909297003072,0.603645709276038
walking,2.72338134426,9.12781264515,-0.25536865866,-0.15390013859,0.23187866131,-0.18338928243,2.7947410648748,5.4549332406967,5.71548807697583,1.94203396272274,2.0702349604179,0.724044693136496,7.81057761969751,29.7562966604578,32.6668039580529,3.77149591236861,4.28587279133651,0.524240717659123
walking,2.91857178356,9.04770723153,-0.34648925892,-0.1592727592,0.03263244607,-0.11438903966,2.92030995350355,5.56802164387557,5.64492503567156,2.05311844591784,2.02902036883068,0.697485207321905,8.5282102245319,31.0028650266668,31.8651786583516,4.21529535296808,4.11692365712978,0.48648561443288
walking,3.01983276827,9.04666578388,-0.2380157524,0.03171692336,0.00048218364,-0.15355682421,2.8451590410936,5.55387110555798,5.47977793141924,2.12145074401423,2.03626073240496,0.687480603725231,8.09492996911665,30.8454842571518,30.0279661776694,4.50055325927852,4.14635777033438,0.472629580498408
walking,2.96522704577,9.3133209102,-0.2632000888,0.1036544825,0.0231262209,-0.20471954513,2.57201117743667,5.50860705866064,5.33921270538984,2.09580958741672,1.90435577874647,0.669069672924137,6.61524149685914,30.3447517267259,28.5071923133963,4.39241782670786,3.62657093204508,0.447654227226811
walking,2.83968627678,9.7106762622,-0.3159490924,0.12212219534,0.09815063093,-0.12265625154,2.53077460209473,5.3340227806535,5.34235569936897,2.09448359715853,1.74840738391862,0.638130846065714,6.40482008660774,28.4517990245305,28.5407644185801,4.38686153876613,3.05692838014117,0.407210976700544
walking,2.72004883036,9.4443365417,-0.31130737201,0.23842926438,0.11886138809,-0.13089142204,2.51218959678352,5.36782842901139,4.97858836600808,2.012026439165,1.60567904586448,0.56419844703661,6.31109657018734,28.8135820433029,24.786342118151,4.04825039189898,2.57820519832828,0.318319887638522
walking,2.80743225198,9.4070480203,-0.32801759397,0.24268035656,0.08312225114,-0.19888763758,2.48705680359332,4.98629819755331,4.84170445403149,1.95803832678117,1.65466497021453,0.59692254143063,6.18545154429981,24.8631697149234,23.4421020201884,3.83391408914399,2.73791616365506,0.356316520468002
walking,2.64549560194,9.5967159951,-0.27186461906,0.10188140622,0.03210906728,-0.14544982895,2.50999968440577,4.75581169418095,5.37282138541712,2.01136792735038,1.79395464995407,0.655855050864949,6.30009841571707,22.6177448705083,28.8672096395956,4.04560093917377,3.21827328609181,0.430145847745065
walking,2.42440672674,9.4042868239,0.21830140963,-0.03236998985,-0.08712463683,-0.10814056397,2.51632391927385,4.77811983400731,4.88597276284347,2.05253063928817,1.77302103181391,0.648431343538297,6.33188606670973,22.830429148134,23.8727298392483,4.2128820252167,3.14360357925446,0.420463207282882
walking,2.53102355824,9.5641406674,0.54698303783,-0.01492766582,-0.09168548468,-0.1134063703,2.63923743239318,4.8366927441742,4.51042400521936,2.07491385309119,1.70949846633738,0.665552842995107,6.96557422454536,23.3935967015473,20.3439247068591,4.30526749774972,2.92238500640985,0.442960586818869
walking,2.76356202551,9.9530635385,0.13182251898,-0.06576995459,-0.09619292943,-0.1196121205,2.73536144529011,4.66923864242947,4.93340791761531,2.06999478899382,1.60797235572462,0.6468899525824,7.48220223637961,21.8017894999566,24.3385136815894,4.28487842646158,2.58557509677458,0.41846661075206
walking,2.78339052292,9.9156797867,-0.29514464118,-0.19253386744,-0.14194030721,-0.12575378371,2.7449931416879,4.83859178409787,5.0881581065278,2.03820294855807,1.65625260098843,0.689977940105973,7.53498734791363,23.4119704531394,25.8893529170246,4.15427125951079,2.74317267828095,0.476069557832882
walking,2.51321840523,9.464355475,-0.37967161986,-0.23846282712,-0.14533691327,-0.10285339343,2.85229566769622,5.57596745611932,5.19307253672225,2.01179808939238,1.7937454825491,0.711271710779994,8.1355905759586,31.0914130717018,26.9680023716589,4.04733155248285,3.21752285616531,0.5059074465559
walking,2.56970459685,9.2089892473,-0.3027618471,-0.2384201074,-0.11347503505,-0.08027343779,2.97389968673349,5.34878467471052,5.32915384987489,1.96412865635225,1.9812093206776,0.664607550342252,8.84407934675357,28.6094974964181,28.3998807556364,3.85780137870409,3.9251903723398,0.441703195971929
walking,2.78631835039,9.0961894121,-0.21142699593,-0.0542236308,-0.01344604621,-0.15547943064,2.91118533018462,4.79284130596538,5.33620122750896,2.00194968052981,1.98693303378966,0.651718247483537,8.47500002668216,22.9713277841679,28.4750435404681,4.0078025233734,3.94790288076459,0.424736674103013
walking,2.76787047642,9.264636381,-0.11007078951,0.10444488956,0.0183944669,-0.22160644548,2.96669201779471,5.1869394512467,5.16282098098114,2.11438620963781,1.85431742539377,0.665820415107497,8.80126152844684,26.9043408708995,26.654720481659,4.47062904350654,3.43849311411896,0.44331682517392
walking,2.68353394413,9.7037672185,-0.21621154728,0.14807739336,0.048750303,-0.15736999558,2.93051307908823,5.24675271332071,5.08776568396072,2.1147838035969,1.7947248723436,0.65595942362808,8.58790690670715,27.5284140347382,25.8853596548883,4.47231053595578,3.22103736740875,0.430282765446483
walking,2.6574688818,9.6102543466,-0.3936920106,0.18864440917,-0.0047836323,-0.16968536311,2.59491458006023,4.82158657633482,4.76328110249393,1.9702449758663,1.66859565563738,0.588102553590233,6.73358167780918,23.2476971130921,22.6888468613757,3.88186526492638,2.78421146201194,0.345864613539352
walking,2.60940918507,9.5629563846,-0.3604858421,0.23562011547,0.01976165741,-0.20996398931,2.67761700850944,4.76742993579202,5.07143327417902,1.93634063067349,1.76198279394361,0.642333729505566,7.16963284425905,22.7283881926859,25.7194354544501,3.749415037997,3.10458336615334,0.412592620060529
walking,2.48194031727,9.62217404997,-0.33073119634,0.16013641023,0.11652221617,-0.1416259788,2.93644657865961,5.01955337409679,5.33825050877585,2.02239486359612,2.03307866479847,0.707337204073235,8.62271850932176,25.1959160754065,28.4969184944456,4.09008098429997,4.13340885725874,0.500325920266141
walking,2.35968445673,9.29207013124,0.25726807836,0.04601897863,-0.04375915904,-0.10258636577,2.81797633802511,5.01103250884264,4.44789676930953,1.99087327421302,2.07739528532014,0.715367230070462,7.9409906416694,25.1104468046777,19.7837856704341,3.96357639397569,4.31557117147036,0.511750273858686
walking,2.38955811191,9.62857726087,0.4894732663,-0.00780334955,-0.15511017136,-0.1028854365,2.71704142441335,4.76124700384415,4.54845489241429,1.97052339265878,1.88809557018443,0.695653537938607,7.38231410197812,22.6694730316149,20.6884419083275,3.88296244101548,3.56490488215006,0.483933844846501
walking,2.61031372455,10.0275572459,-0.118640149,-0.11992339885,-0.20511932626,-0.1149337765,2.7182191286936,5.0522035767371,5.16667927551791,2.0513720458461,1.80078537330868,0.679085307853633,7.38871523159581,25.5247609807951,26.6945747360662,4.20812727047881,3.2428279607225,0.461156855342663
walking,2.50719604447,9.6589151083,-0.32311401873,-0.17920379576,-0.184312442,-0.13267517003,2.69389841656744,5.3428346635583,5.10929643468522,2.02110928603281,1.87698513236828,0.710226205086874,7.25708867878456,28.5458822421201,26.1049100574871,4.08488274608806,3.52307318713157,0.504421262392102
walking,2.41186218378,9.161048556,-0.4497259593,-0.22855071923,-0.0573776257,-0.09058074814,2.81945148934115,5.18358708151683,5.06814843727591,1.85873074197741,1.88267114955194,0.663203091822747,7.949306700748,26.8695750316682,25.6861285822622,3.45487997117188,3.54445065735522,0.439838341003251
walking,2.60417237491,8.9867577896,-0.58295533617,0.01113433599,0.26644287155,-0.07218780322,3.03978795187597,4.7792159638078,4.70242622698132,1.76382756337922,1.56332406084822,0.590813402844385,9.24031079237033,22.8409052287153,22.1128124202018,3.11108767333629,2.44398211922698,0.349060476980562
walking,2.4195031821,9.4546971238,-0.2604864543,0.53648681108,1.08375396865,-0.25578613462,3.72179497292442,4.52140016014431,4.88479885694493,1.59359826239372,1.47458944222967,0.801137606056717,13.8517578204855,20.443059408153,23.8612598728105,2.53955542190427,2.1744140231352,0.641821463838288
walking,2.1767053187,9.6639912378,-0.13977782249,0.68076782532,1.29987640542,-0.34304046835,3.72287845762755,4.20938730246839,5.06704147874513,1.581242253391,1.46649879916523,0.762908161669071,13.8598240102673,17.7189414621821,25.6749093473236,2.50032706390905,2.15061872795306,0.582028863141282
walking,2.36254089015,9.6593435449,-0.42561279675,0.4510162356,0.64632873742,-0.18492736757,2.61355733628806,4.36789286573084,4.83883530052997,1.75052460107409,1.5635232106614,0.639274127465449,6.83068195006513,19.0784880865024,23.414327065655,3.0643363789656,2.44460483027692,0.408671410046712
walking,2.39762756532,9.6035655559,0.08892821239,0.108097836,0.10832977111,-0.10454101369,2.38359898483119,4.81674506497126,4.68743726160702,1.86016035494091,1.85599912990101,0.707020879184393,5.68154412048828,23.201033020925,21.9720680815019,3.46019654609391,3.44473277019332,0.499878523602673
walking,2.29046325114,9.4612610261,0.52696411635,-0.0428909286,-0.17846985005,-0.1336685126,2.85182942380447,4.94451264546018,4.7919855416371,1.96219829537428,1.96811014124395,0.670105113766015,8.13293106247697,24.4482053011156,22.963125431259,3.85022215036974,3.87345752806729,0.449040863495364
walking,2.57203734311,9.8802241701,-0.0970739713,-0.08202667334,-0.21099395205,-0.12216491304,2.87373295957899,4.82553191227391,5.20454519157335,1.96814712831225,1.89679772397649,0.643698324353958,8.25834112297062,23.2857582363739,27.0872906511292,3.87360311868375,3.59784160568241,0.414347532776093
walking,2.49846008198,9.7784216382,-0.3903832988,-0.26462097896,-0.18251800219,-0.1068588265,2.72483393022298,5.16326799791867,5.28017654620882,1.90366263024375,1.9200120746729,0.64855872576452,7.42471994729442,26.659336418331,27.8802643591337,3.62393140978656,3.68644636688975,0.420628420765298
walking,2.32124146277,9.3198014732,-0.3576770139,-0.2612457365,-0.15751342764,-0.08594513058,2.82691714752118,5.39457461213678,5.39009044287152,1.87923342904861,2.0360031513378,0.643675561905267,7.99146055894926,29.1014352459107,29.0530749823349,3.53151828085378,4.14530883225744,0.414318228994062
walking,2.46249268478,9.0624119636,-0.4920251659,-0.10276947724,0.00632477246,-0.10912322898,2.84825994201788,4.99293972464805,5.19251939276295,1.91835189912981,1.95859363981555,0.605776640960064,8.11258469730372,24.9294470939685,26.9622576442193,3.68007400889496,3.83608904592592,0.366965338732859
walking,2.52233521165,8.9880372663,-0.3277081289,0.01445617474,0.01618347892,-0.14124145419,2.67585854946606,5.26933775647623,5.13562315693041,1.99385273077627,1.85291039938624,0.633498144525838,7.16021897675063,27.765920391826,26.3746252099998,3.97544871202399,3.43327694815368,0.40131989911768
walking,2.6135510336,9.4240557925,-0.313473508,0.031268316,-0.04536132118,-0.16451568679,2.64178853785306,5.52476154310573,5.26322384421512,2.01762225643011,1.8822792375692,0.633812255769706,6.97904667873182,30.52299010818,27.7015252343146,4.07079956964212,3.5429751281841,0.401717975563883
walking,2.48965271352,9.8391568237,-0.3592480299,0.10226593562,0.1159881585,-0.10442352532,2.70142584800126,5.20780023584561,5.21406530615448,1.93519354713508,1.84059690228191,0.598419328931689,7.29770161224933,27.1211832964736,27.1864770168439,3.74497406487326,3.38779695668976,0.358105693239053
walking,2.34264099238,9.4974247983,-0.0949792399,0.13983154072,0.08671111764,-0.10288543881,2.56101375681531,5.2282813198807,4.86340996749332,1.9082011482359,1.66186717534157,0.584772808020912,6.55879146259726,27.3349255598135,23.6527565119134,3.64123162212881,2.76180250847777,0.341959237000662
walking,2.47613221386,9.4098211839,-0.2235431056,0.1742889364,0.08464966219,-0.15613097821,2.54009561606687,5.12385259953518,4.86561718907821,1.85228662301566,1.6241457016655,0.614019429083085,6.45208573876214,26.2538654617635,23.6742306306534,3.43096573380275,2.63784926023853,0.377019859291517
walking,2.37479982054,9.6378309715,-0.2507031363,0.0694641109,0.10589447773,-0.13313445836,2.64580229283788,4.94024327184389,5.05341805135474,1.92221049491664,1.7944716935778,0.631822816035129,7.00026977278618,24.4060035849988,25.5370340017579,3.69489318676767,3.22012865905198,0.39920007086256
walking,2.20019958846,9.3692060826,0.34172363037,-0.05183105298,-0.07142333496,-0.12559356835,2.65609605962779,5.12283512849479,4.53211415210443,2.00172182621295,1.88032583005091,0.641476005271843,7.05484627797029,26.2434397537402,20.5400586877052,4.0068902695373,3.53562522715664,0.411491465339521
walking,2.3709674119,9.7576112296,0.21803955001,-0.0445892306,-0.13319244501,-0.08347778444,2.61086553970143,4.99689624060615,4.67184888381555,1.90860957582008,1.72665977418566,0.651038609952229,6.81661886640046,24.9689720393838,21.8261719932086,3.64279051291212,2.98135397579087,0.42385127164853
walking,2.54559142612,10.015762473,-0.40954528736,-0.13509063362,-0.12732849177,-0.12812500008,2.77760243636866,5.09703065045444,5.22147747048018,1.9480131409494,1.78992640358347,0.638455028483295,7.7150752945211,25.979721451672,27.2638269747321,3.79475519731156,3.20383653024524,0.407624823395605
walking,2.3877490189,9.4333511027,-0.42708862737,-0.221084598,-0.133747861,-0.15918578996,2.77967548543397,5.36110124657839,5.24420880571269,1.87791439317674,2.02297638523493,0.655537046663404,7.72659580432258,28.7414065760643,27.5017259979146,3.52656246810036,4.09243345521819,0.429728819548178
walking,2.34647339955,9.1244027594,-0.36598450927,-0.23696746908,-0.0493667587,-0.1026718144,2.54318749253789,5.225799155464,5.1143329864139,1.79312726720666,2.08217390541395,0.657953754966866,6.46780262220118,27.3089768132482,26.1564018959213,3.21530539640002,4.33544817238677,0.432903143674999
walking,2.54414535779,9.012150404,-0.2352426256,-0.027702327,0.16482238482,-0.13040008646,2.60075718963948,5.26831150402505,5.29539425097494,1.9749657460117,1.99439729668993,0.629160402390355,6.76393795946143,27.7551061034427,28.0412002732585,3.90048969791956,3.9776205770441,0.395842811935993
walking,2.61836531236,9.2577451526,-0.3064157184,0.12815704626,0.14381255423,-0.19263916098,2.76140690783503,5.63730324916519,5.38081935248466,2.05536874695284,1.94957441231651,0.622043164607396,7.62536811063901,31.7791879230484,28.9532169040734,4.22454068595049,3.80084038915927,0.386937698634785
walking,2.55827879842,9.81089585298,-0.46024719374,0.13027191463,0.15844573241,-0.13207702602,2.9144520462236,5.51115937587261,5.18219755704741,2.00729453609383,1.89732700226382,0.561757820825607,8.49403072973695,30.3728776662686,26.8551715202681,4.02923135463213,3.59984975351939,0.315571849258735
walking,2.45320922992,9.69709628748,-0.37652954844,0.19960327005,0.1302902246,-0.12778320404,2.90546953728713,5.2932318795012,5.03132813684087,2.00743223357928,1.77974797879934,0.509904969499753,8.44175323210351,28.0183037301678,25.3142628205666,4.02978417241309,3.16750286804033,0.260003077920544
walking,2.47734618772,9.53510606977,-0.4145678716,0.28121795504,0.06506042948,-0.17871093843,2.94318769815489,5.27260169980685,5.14840533548346,1.93452488034314,1.77900503274966,0.567977727985807,8.6623538265703,27.8003286848061,26.5060774984346,3.74238651266662,3.16485890654861,0.32259869948792
walking,2.24021362188,9.63241563447,-0.2973107978,0.13712921186,0.07535705207,-0.13793029579,2.6363287205756,5.09794401983306,5.22723878362346,1.94874093067048,1.89315373714733,0.644093872638105,6.95022912293176,25.9890332293516,27.3240253010172,3.79759121487045,3.58403107247491,0.414856916769952
walking,2.05732971896,9.3866482287,0.29666319654,0.0233215274,-0.12474364971,-0.11468810907,2.41868844543168,5.04492135540721,4.58199702025877,2.00304993382247,1.96995645307765,0.693774574201786,5.85005379606471,25.4512314822437,20.9946966936603,4.01220903738619,3.88072842702227,0.48132315980887
walking,2.374109492,9.7172400902,0.30996948734,0.00688323389,-0.33288725797,-0.13732147258,2.74987337108281,4.95121780442466,4.38004129161576,1.99592725722599,1.79524184045848,0.688150261917061,7.56180355699035,24.5145577468517,19.184761716259,3.98372561613766,3.22289326573274,0.47355078297652
walking,2.64628109979,9.9648225328,-0.36469909695,-0.23493805151,-0.6161727883,-0.11826629851,2.91007324848103,5.14142321427003,4.80489551964416,2.02175534263142,1.72741651188454,0.638710425938718,8.46852631152491,26.4342326682347,23.0870209546965,4.08749466545868,2.98396780553136,0.407951008202818
walking,2.34449766443,9.4291141122,-0.44936890685,-0.37414550969,-0.69994507369,-0.05618744094,2.89462076526179,5.43586417161043,5.01128908443686,1.94334364164408,1.82743211996761,0.610253305360821,8.37882937468474,29.548619292198,25.113018287796,3.77658450951846,3.33950815308933,0.372409096703807
walking,2.2801086392,9.27241426988,-0.3358014002,-0.25158996001,-0.35922699893,-0.03569030612,2.93278044960658,5.70929737646443,5.47907368993607,1.88903679963217,2.06204096259896,0.67520364760034,8.60120116559456,32.5960765329036,30.0202484997497,3.56846003036454,4.25201293143603,0.455899965732804
walking,2.51002867563,9.18751830848,-0.3486077909,-0.10145568174,-0.01814575792,-0.06070557096,2.9292527851811,5.49998374060925,5.54684071866105,1.96935042144332,2.09372368336625,0.773918492759322,8.58052187949122,30.2498211469661,30.7674419581962,3.87834108243899,4.38367886228876,0.598949833434861
walking,2.55292296973,9.1552166557,-0.2369921915,0.02538299553,0.01751861387,-0.14159393721,2.8548847829422,5.3087448234591,5.38719110590927,2.0699671545559,2.01894144127438,0.769825831588331,8.15036712387491,28.1827716006038,29.0218280115879,4.28476402094026,4.07612454329509,0.592631810980665
walking,2.6086474635,9.5629087875,-0.3034759563,0.15649414079,0.05638732935,-0.1886444055,2.85031950086859,5.76021207786602,5.4415039737812,2.13434074361901,2.09106730030853,0.650432257550234,8.12432125703174,33.1800431819935,29.6099654966766,4.55541040987214,4.37256245441962,0.423062121661894
walking,2.3909625286,9.8010708374,-0.28605163778,0.16434478527,0.06037140028,-0.11715545664,2.71287219226267,5.55834007519782,5.21826270231938,2.02763294022289,1.84950201561517,0.624814029058495,7.35967553155204,30.8951443915501,27.2302656304176,4.11129534027691,3.42065770576458,0.39039257090831
walking,2.22052795312,9.5300774804,-0.40809326768,0.20428161021,0.08364562828,-0.13430938743,2.68110472288301,5.13597337994178,4.81164521293038,1.86632600511397,1.61364311495985,0.629366932311621,7.18832253506557,26.3782225594706,23.1519296551159,3.48317275736466,2.60384410245732,0.396102735487341
walking,2.29117736642,9.6607837004,-0.6044976817,0.2017608579,0.16187438809,-0.17555999709,2.76655515363309,5.00678320474914,4.81705699255302,1.9049663693676,1.79299680307395,0.631686891617813,7.65382741809384,25.0678780593581,23.204038069504,3.62889686842158,3.21483753583342,0.399028329041774
walking,2.1098168988,9.8248150613,-0.42223267653,0.05134887466,0.05493469496,-0.13219452185,2.62740679043226,4.94988921603347,5.09950059872458,1.9841899044124,1.84557680841369,0.671672121798457,6.90326644240953,24.5014032510044,26.0049063563924,3.93700957677211,3.40615375575447,0.451143439201241
walking,2.01245972746,9.4923010389,0.07655027407,-0.05962829622,-0.06113738547,-0.12492065592,2.72494215358036,5.16373797453727,4.82818268257193,2.01979326051353,1.85853121323438,0.674494063412669,7.42530974035916,26.6641898696782,23.3113480162875,4.07956481521587,3.45413827056646,0.454942241578934
walking,2.17694336422,9.3717650176,0.30025755787,-0.02255401668,-0.05373534827,-0.119612121,2.91777679950898,5.32481175732467,4.72709551925619,1.96750852808186,1.95527806518574,0.685416040673584,8.51342145175289,28.353620250943,22.3454320481719,3.87108980807487,3.82311231219647,0.469795148812652
walking,2.24623596251,9.5680682581,-0.10804748981,0.08175811623,-0.03142242175,-0.13116912724,2.85789849196515,5.12832130314181,5.04788000329442,1.95560654352487,1.93243945071737,0.703629896361103,8.16758379037665,26.2996793882581,25.4810925276596,3.82439695307729,3.73432223068886,0.495095031053137
walking,2.31350524595,9.8858358797,-0.26617554988,0.05018463033,-0.10099945087,-0.13459777771,2.97748964628578,5.22963441744233,5.30428930541053,1.99781085394115,1.94224650248728,0.783158587690863,8.86544459373901,27.3490761400974,28.1354850354925,3.99124820812507,3.77232147642406,0.613337373473948
walking,2.4067919761,9.9279922615,-0.2692224269,-0.01854858785,-0.23137360325,-0.10601501466,3.15981215256493,5.73686137783541,5.46626372636433,2.03121561795686,2.01753943408666,0.759955398196431,9.98441283949704,32.9115784684996,29.8800391261665,4.12583688663185,4.07046536809472,0.577532207247895
walking,2.38410704608,9.6583914229,-0.2899792518,-0.02361145705,-0.20922089323,-0.09508819603,2.94173065824796,5.61364226950405,5.27856580526714,2.02596019476885,2.05652748049279,0.686834195923743,8.65377926567597,31.5129795299626,27.8632569605355,4.10451471078785,4.22930527802202,0.471741212690215
walking,2.14535583266,9.46239762028,-0.10819030468,-0.09924469362,-0.05480346218,-0.09750213563,2.71165065227883,5.40695250405322,5.21548989541936,2.00005167707322,2.01486807492456,0.705597966273098,7.35304926000418,29.2351353810874,27.2013348492214,4.0002067109634,4.05969335935022,0.497868490008732
walking,1.98099120512,9.44329512188,-0.30776061036,-0.13051910352,0.02295532471,-0.14021606175,2.68816254354665,5.43865271934964,5.05531829822301,1.99068051667848,1.89037304235497,0.670617620343355,7.2262178605272,29.5789434016892,25.5562430963484,3.96280891948329,3.57351023926238,0.449727992714985
walking,2.07320678134,9.5280124912,-0.54172730228,-0.12267913342,0.04261931639,-0.09830322174,2.76543026200725,5.16582132708294,4.88074140385833,1.84614669979981,1.87537601323755,0.627116000952445,7.64760453402547,26.685709983345,23.8216366513369,3.40825763718171,3.51703519102676,0.393274478650588
walking,2.16630308359,9.6400089936,-0.295953995,-0.11664428754,-0.02218323235,-0.03696136469,2.93255796909052,5.12225556543303,5.16009127799541,1.85733794591156,1.99144073761133,0.657397901080174,8.5998962420763,26.2375020776096,26.6265419972443,3.44970424532298,3.96583621141797,0.432172000344618
walking,2.2499017201,9.4446459884,-0.20699951153,-0.0235900945,-0.12052459684,-0.08336029013,2.82493333084073,5.04949747536199,5.23937728179672,2.02571144188211,1.93503709783524,0.675095750477862,7.98024832369491,25.4974247536871,27.4510743010076,4.10350684577211,3.74436856999862,0.455754272313268
walking,2.40712525551,9.4215980384,-0.29695372573,0.07844695292,-0.06553802845,-0.1478851332,2.60319077044181,5.01080533523584,5.11018547112534,2.01220042655818,1.88837275398806,0.611889536779669,6.77660218731342,25.108170107628,26.1139955493005,4.04895055664091,3.56595165800444,0.374408805220438
walking,2.31157715676,9.7447453294,-0.38095704204,0.1501815753,0.16590118048,-0.15210418814,2.54269406531912,4.90847674333195,4.95005443460266,1.89611620044323,1.82041974123269,0.577773298764958,6.46529310980909,24.0931439398306,24.5030389055294,3.59525664558328,3.31392803426971,0.333821984765742
walking,2.14099975466,9.8053733803,-0.0910516643,0.15404815283,0.1014190694,-0.10711517424,2.67038139730884,4.84299406619772,5.04341931859288,1.83818496159138,1.72933602250513,0.624945319751244,7.13093680709312,23.4545915252263,25.4360784231558,3.37892395302071,2.99060307873387,0.390556652678985
walking,2.25225828871,9.50294130509,-0.31999574226,0.20377959911,0.0207015948,-0.18511962823,2.69519378054284,4.90982990360645,4.79381521256289,1.83148871247063,1.67314847047721,0.583955870410564,7.26406951467679,24.1064296823481,22.9806642921994,3.35435090390732,2.79942580426021,0.341004458586959
walking,2.13702452441,9.61748479209,-0.631419672,0.19174194604,0.00455169042,-0.19956054603,2.55183370487269,4.82239883693483,4.62597630656614,1.84743001307569,1.68749478323735,0.622467552666987,6.51185525732428,23.2555305424704,21.3996567889113,3.41299765321284,2.84763864345327,0.387465854123228
walking,1.98125305022,9.752731517,-0.115783681,0.02475280716,-0.15955352393,-0.1155853251,2.55588901634157,4.87430531205794,4.76077076115573,1.90667853780922,1.83994203645693,0.71147323412133,6.53256866385548,23.7588522751562,22.6649382402753,3.63542304654232,3.38538669752127,0.506194162871065
walking,2.08160949582,9.4861120653,0.31156433446,0.0048324544,-0.20294036121,-0.10906982095,2.60014994263928,4.79332566178319,4.32012154081902,1.91914442368669,1.83247921865369,0.63461842600605,6.76077972420706,22.9759708999093,18.6634501274485,3.68311531896773,3.35798008679763,0.402740546626397
walking,2.1844177268,9.59954866044,0.19045104953,0.06004333642,-0.1923232958,-0.10741424389,2.58043490166223,4.65876270142023,4.48814240656252,1.9395533731367,1.85287567383913,0.622515687016527,6.65864428171654,21.7040699081443,20.1434222615848,3.76186728724596,3.43314826270479,0.387525780581659
walking,2.3937951627,9.83453889984,-0.31347350663,-0.10680694585,-0.15774840935,-0.05690307688,2.60058990719674,4.60203004424115,5.03803405107836,1.88757677000171,2.03821975225645,0.665023469735979,6.76306786541353,21.1786805280982,25.381787099825,3.56294606265007,4.15433975848834,0.442256215299681
walking,2.34528319811,9.66293197,-0.58833495502,-0.16400451857,-0.018540954,-0.08968353024,2.50190016276981,4.67358378122074,5.23933998350816,1.80291701718574,2.10028475929707,0.609705419614091,6.25950442446763,21.8423853600895,27.4506834627873,3.25050977085792,4.41119607013555,0.371740698706794
walking,2.03769165136,9.336315315,-0.56500732582,-0.2267669663,-0.02944641073,-0.14212798538,2.47570679499388,4.93303395594598,5.13542374438104,1.71990683362363,1.93242782420896,0.611432480505141,6.12912413477887,24.3348240105161,26.3725770343526,2.95807951634525,3.73427729577696,0.373849678216669
walking,2.13840513971,9.1804962385,-0.4775762891,-0.28019409124,-0.10957641756,-0.06907958945,2.57788448028145,4.82211780257078,4.94534195063398,1.73623925646282,1.84197080395459,0.624604990801063,6.64548839367598,23.25282010187,24.4564070087003,3.01452675568257,3.39285644262113,0.390131394533595
walking,2.4158849995,9.1475280655,-0.41770995777,-0.00950164904,0.01145171939,-0.06652679458,2.74783208398904,4.69584781993596,4.93291008349309,1.86188003013959,1.7625900776133,0.65149750348936,7.55058116179954,22.0509867479973,24.3336018918278,3.46659724663259,3.10672378170086,0.424448997052868
walking,2.30569764374,9.3373388466,-0.41887634647,0.0628524772,0.04387969537,-0.12229308966,2.72971016909201,5.03460749517496,4.87124137490607,1.82320035782221,1.8087817282139,0.71234657999144,7.45131760724433,25.3472726304718,23.7289925325967,3.32405954476305,3.27169134032046,0.507437650025501
walking,1.9213867303,9.7173115426,-0.5665545717,0.03216553075,0.22087706878,-0.09264220695,2.42350237064938,4.76314022885452,4.18553280132962,1.60413044290954,1.53892479831906,0.595811765708736,5.87336374054316,22.6875048397323,17.5186848310062,2.57323447786915,2.36828953488137,0.354991660156962
walking,1.8175549387,9.901921199,-0.3303265389,0.31093292291,1.31332396558,-0.18325042414,2.31938952808451,3.40463700016082,3.3949229350148,1.28417108198384,1.70231095074232,0.606273089493992,5.37956778298806,11.591553102864,11.5255017346895,1.64909536780353,2.89786257301722,0.36756705904459
walking,2.1376196359,9.73581294,0.4909491011,0.24637603369,1.11664123248,-0.14550323701,2.31980808800963,2.62805249648361,3.55167507062937,1.13417245634219,2.43640106946716,0.560007602861302,5.38150956519487,6.90665992427376,12.6143958073301,1.28634716072527,5.93605017130071,0.313608515262462
standing,2.2550195303,9.545621291,0.9358880626,0.00327300571,0.0249633821,-0.00746002282,1.61436217962126,2.00284666245872,2.67056662594967,0.769980217978475,1.7352710961124,0.20789723705423,2.60616524699151,4.01139475332204,7.13192610363619,0.59286953607818,3.01116577700312,0.043221261174783
standing,2.083085325,9.533600405,0.8174645986,0.01607970897,0.00164642309,-0.01927337641,0.249788210540399,0.112792079688572,0.189917968885295,0.029553069238744,0.070190310446628,0.021396615952354,0.062394150124975,0.012722053240473,0.036068834905516,0.00087338390143,0.004926679680594,0.000457815174213
standing,1.932598262,9.579160715,0.7128472889,0.00331573339,-0.00602264409,-0.00703277898,0.131005374707225,0.0822680135064,0.139945266171996,0.022654837274354,0.050621987153397,0.012223774687711,0.01716240820218,0.006768026046289,0.019584677523951,0.000513241651927,0.002562585583359,0.000149420667616
standing,1.883229366,9.600155645,0.6859729003,-0.00205688894,0.00537414208,-0.00014343995,0.076652426565213,0.051650656656591,0.094383042543476,0.011316522806667,0.029870568389136,0.00979541923615,0.005875594498335,0.002667790333057,0.008908158719764,0.000128063688434,0.00089225085589,9.59502380119393E-05
standing,1.881325075,9.593776275,0.6982794193,-0.00417175598,0.00113372455,0.00256957766,0.082849835898738,0.055534068987287,0.083644221761692,0.012270281111998,0.026505791091574,0.007747613519062,0.006864095308448,0.003084032818285,0.006996355834119,0.000150559798567,0.00070255696139,6.0025515240754E-05
standing,1.896773681,9.580541385,0.7487670885,-0.00698089941,0.00115508865,0.00275118772,0.059900960409,0.045916380315054,0.068775649751678,0.006815429182136,0.018653210022836,0.005366388455009,0.003588125057921,0.002108313981237,0.004730089998765,4.64500749367054E-05,0.000347942244156,2.87981250500513E-05
standing,1.914602659,9.57620909,0.7695477272,-0.00425720956,0.00206298307,0.00251621911,0.031649791658848,0.027154341068056,0.045838423028516,0.003944267960268,0.010133055198395,0.002199218945572,0.001001709312049,0.00073735823884,0.002101161025741,1.55572497423946E-05,0.000102678807654,4.83656397056436E-06
standing,1.91015137,9.58499268,0.7916613765,-0.00538940991,0.00928344386,0.00143740428,0.076966044931289,0.124407550788384,0.107300855744646,0.012763519494794,0.033750414572568,0.012557720299828,0.005923772072365,0.015477238693164,0.011513473643533,0.000162907429894,0.00113909048382,0.000157696339129
standing,1.904700319,9.58423097,0.8248199478,-0.00523987345,0.00406036194,0.00218504841,0.102461372742214,0.135867211598065,0.120168322016817,0.014469898292692,0.038032943886561,0.014645591898987,0.010498332904219,0.018459899187434,0.014440425616338,0.000209377956601,0.001446504820678,0.000214493362072
standing,1.914126584,9.574400045,0.8318420421,-0.00295410825,-0.00795593814,0.00173643683,0.087966110971435,0.064184077222387,0.081762394868598,0.008609115503901,0.022506316889219,0.00854482128917,0.007738036679439,0.004119595768889,0.006685089214649,7.41168697595015E-05,0.000506534299918,7.30139708638579E-05
standing,1.902534178,9.582326685,0.7984692388,0.00788726358,-0.00114136104,-0.0041381722,0.105423726302442,0.04533095171349,0.111256481015883,0.016475881611821,0.04752304030662,0.011897347384219,0.011114162067492,0.002054895183251,0.012378004568038,0.000271454674887,0.002258439359985,0.000141546874781
standing,1.808937984,9.62215028,0.63279541004,0.02579955872,0.05090789731,0.00592347652,0.238199474528789,0.094525829630236,0.261704356647986,0.056435161605139,0.269566762184742,0.031886601055965,0.056738989665791,0.008935132467284,0.068489170288537,0.003184927465398,0.072666239274765,0.001016755326902
standing,2.064827876,9.57235291,0.30775573781,-0.01780090385,-0.01187591625,0.03098145334,0.586276702831713,0.283086269566608,0.542129179660143,0.200424303571561,0.373563803107073,0.073851102444843,0.343720372283225,0.080137836017138,0.29390404743898,0.040169901462145,0.13954991499182,0.005453985332319
standing,2.292534174,9.50794007,0.44515075937,-0.04457855398,-0.04266967753,0.00669250396,0.48672576798429,0.278845440248607,0.597355262991528,0.18993466058968,0.2749890781208,0.078861705574016,0.236901973219897,0.07775477954744,0.356833310223678,0.036075175293317,0.075618993085728,0.006219168606043
standing,2.133215933,9.53440981,0.7228210462,0.00276031359,-0.01564636188,-0.01619721066,0.221069119876607,0.111627412457915,0.218192259419794,0.039657645048644,0.119500628619243,0.023955744027929,0.048871555763018,0.012460679212049,0.047607862070715,0.001572728810804,0.014280400240394,0.000573877671932
standing,2.076110831,9.55766598,0.5378424064,0.00823974462,-0.05478210627,-0.00023957005,0.112163494428122,0.058366187987884,0.18355901747152,0.023159919098661,0.053824142879993,0.011720981855191,0.012580649482328,0.003406611900237,0.03369391289511,0.000536381852657,0.002897038356766,0.00013738141565
standing,2.080704948,9.567901575,0.4922583005,-0.01336823033,0.01548919312,-0.00050660478,0.097240291216828,0.052682430587272,0.163469549381053,0.015951191623473,0.095432455403492,0.01243850099928,0.009455674235933,0.002775438492583,0.026722293574845,0.000254440514209,0.009107353544339,0.000154716307109
standing,2.066303709,9.564164425,0.6099438469,-0.00983277149,0.02312621905,-0.0019058389,0.082413802055992,0.038033142848923,0.134394024124627,0.014028236001344,0.084453548099953,0.010519885004783,0.006792034769324,0.001446519954967,0.018061753720411,0.000196791405309,0.007132401786671,0.000110667980514
standing,2.066970213,9.56525937,0.5575042706,0.01657104054,-0.01096802115,-0.00220490139,0.137522421266865,0.22218084515274,0.51479393200892,0.131698298087658,0.172046262348602,0.045643254937723,0.018912416351101,0.049364327952786,0.265012792433205,0.017344441719186,0.029599916388124,0.00208330672131
standing,2.029193713,9.594942595,0.15234130771,0.03808288409,0.00457305572,-0.00994873154,0.204374863016037,0.318195917402176,0.74000592671082,0.168668557723526,0.225934731057432,0.0780958702348,0.041769084632824,0.101248641851413,0.54760877156714,0.028449082364534,0.051046502697994,0.006098964947731
standing,1.8698278691,9.331935377,-1.06271911513,0.36603698627,-0.15710754453,-0.05016328784,0.611968511997024,0.842817529622667,2.11868855098639,0.509827787135131,0.361311131729562,0.156784350909551,0.374505459675852,0.710341388239256,4.48884117608082,0.259924372535105,0.130545733911697,0.024581332690129
sit_down_chair_1,0.50135253446,6.606148648,-5.59987302134,0.56881866483,-0.23576355121,-0.06480714798,1.55560754866431,2.63662729985936,4.1794606732289,0.57403977066047,0.337868364403839,0.222706069750977,2.41991484546139,6.95180351836367,17.467891519067,0.329521658299925,0.114155031664926,0.049597993503927
sit_down_chair_1,-0.90135253994,3.986383666,-9.24831545,0.22257842644,-0.08098297879,-0.01691283811,0.678708535813037,0.657095332305968,0.76486909749373,0.472879644005515,0.174903920871944,0.175680086197228,0.460645276585476,0.431774275738291,0.585024736300873,0.223615157714782,0.030591381536379,0.030863492686266
sit_down_chair_1,-1.0100164786,3.801952511,-9.252933395,-0.00269776092,-0.00428162494,0.00579530415,0.108483105569398,0.065848608819996,0.077444771220956,0.016323509898078,0.014895453143604,0.016976666761099,0.011768584193981,0.004336039283529,0.005997692589466,0.000266456975393,0.000221874524353,0.000288207214317
sitting_chair_1,-0.9987097132,3.794049683,-9.25936035,-0.00246277432,-0.00151521695,0.00073244756,0.026399577656041,0.025589381108226,0.031570975759094,0.002369868325674,0.002578600439806,0.002407619802783,0.000696937700417,0.000654816425502,0.000996726510381,5.61627588103297E-06,6.64918022816839E-06,5.79663311475106E-06
sitting_chair_1,-1.002470699,3.781290894,-9.264430575,-0.00255890469,-0.00094913131,0.0007751651,0.022623343054549,0.026287873638488,0.029699590341389,0.0021172304661,0.00196728397651,0.002381252359882,0.000511815650964,0.000691052300433,0.000882065666446,4.48266484658307E-06,3.87020624423213E-06,5.67036280144369E-06
sitting_chair_1,-0.9959722872,3.774054564,-9.26443058,-0.00305023778,-0.00027622037,0.00121311968,0.023792216021535,0.025150817308516,0.03044566092185,0.001964546023123,0.00176430926719,0.001706678119075,0.000566069543215,0.000632563611286,0.000926938268968,3.85944107696876E-06,3.11278719029096E-06,2.91275020212842E-06
sitting_chair_1,-0.9973529013,3.76579468,-9.272738045,-0.00270083543,-0.00114292111,0.0004806417,0.025605392227299,0.021865872314267,0.031849705876898,0.001717819706564,0.001683422541337,0.001477131148428,0.000655636111114,0.000478116372064,0.001014403764445,2.95090454425799E-06,2.83391145268287E-06,2.181916429657E-06
sitting_chair_1,-1.0072790486,3.758272704,-9.27552309,-0.00145579185,-0.00088350847,-0.00030833008,0.02732345414121,0.026088597836595,0.034992465284454,0.001830180150301,0.001805206796238,0.001663714815338,0.000746571146207,0.00068061493708,0.001224472626684,3.34955938255756E-06,3.25877157718211E-06,2.76794698677652E-06
sitting_chair_1,-1.0102783161,3.75298828,-9.275546865,-0.00067763154,0.0001891981,-0.00042889865,0.023804610697491,0.026730084586458,0.035788464773834,0.00189845556751,0.001848659758702,0.001862125303743,0.000566659490459,0.000714497421999,0.001280814210868,3.60413354180809E-06,3.41754290344508E-06,3.46751064684043E-06
sitting_chair_1,-1.0037084932,3.754844975,-9.277736785,-0.00150004447,0.00076598311,-0.00057842552,0.029284893812761,0.028502382567521,0.046350529111821,0.005137290570522,0.003716283588101,0.00292435410501,0.000857605005625,0.000812385812025,0.002148371548946,2.63917544059779E-05,1.38107637071902E-05,8.55184693148845E-06
sitting_chair_1,-1.0036132773,3.754844977,-9.28106933,-0.00059211931,-0.00020599967,-0.00063182973,0.033718522574068,0.031734770421588,0.051178590120216,0.005552408656724,0.004102876273051,0.003068663955098,0.001136938764578,0.001007095653711,0.002619248086693,3.08292418912657E-05,1.68335937119625E-05,9.41669846931604E-06
sitting_chair_1,-1.0116351262,3.743014528,-9.279212615,0.00024098588,-0.00084686951,-0.00059979171,0.030226589400429,0.031925280280896,0.042172233295446,0.002912023746224,0.002378100431993,0.002260398318349,0.000913646706782,0.001019223521014,0.001778497261126,8.4798822985713E-06,5.65536166464704E-06,5.10940055759292E-06
sitting_chair_1,-1.008873898,3.737063593,-9.27640377,-4.74115699999999E-05,-0.00359192492,0.00923757481,0.063455028200952,0.031659744141651,0.04068899799498,0.004619422124537,0.013889379969471,0.019902895073657,0.004026540603984,0.001002339399115,0.001655594557835,2.13390607646594E-05,0.000192914875936,0.000396125232313
sitting_chair_1,-0.9937585433,3.736825554,-9.287210695,-0.00017556301,-0.00124206893,0.00325614654,0.066816000774739,0.029425085927736,0.040542870878805,0.005171478570471,0.016345776376125,0.024987431966453,0.00446437795953,0.000865835681855,0.001643724379095,2.67441906048447E-05,0.000267184405338,0.000624371756278
sitting_chair_1,-0.9954962124,3.731445918,-9.288210475,-0.00065626641,0.00175933378,-0.0067414195,0.03580084394288,0.026349066710719,0.032998785370084,0.003137088638494,0.00795995180197,0.01069168667527,0.001281700427022,0.000694273316526,0.001088919835901,9.84132512576834E-06,6.33608326896799E-05,0.000114312163962
sitting_chair_1,-1.0030181837,3.728684682,-9.280117225,-0.00062424686,-0.0001953185,-0.00056778152,0.024008404202674,0.023981880098947,0.032829077722239,0.001736621513795,0.001902966135479,0.002229722080127,0.000576403472359,0.00057513057308,0.001077748344093,3.01585428217447E-06,3.62128011277965E-06,4.97166055460518E-06
sitting_chair_1,-1.000685423,3.727922963,-9.27916508,-0.00095531848,0.00043486844,-0.00041828058,0.023327389867918,0.021136954836512,0.033896838042752,0.00183862683228,0.001672555486082,0.001455919773389,0.00054416711805,0.000446770859761,0.001148995629297,3.38054862837948E-06,2.79744185402267E-06,2.11970238654473E-06
sitting_chair_1,-1.0017803945,3.724019164,-9.276808475,-0.00063487604,-0.00022736227,-0.00071732811,0.022581116209401,0.023136958922737,0.032832734560021,0.002403178052487,0.002047283263461,0.001559247581097,0.000509906809262,0.000535318868192,0.001077988458689,5.77526475195382E-06,4.19136876084763E-06,2.43125301915604E-06
sitting_chair_1,-1.0061840797,3.722495725,-9.27971252,-0.00028105629,-0.00041850147,-0.00032038405,0.025756881763649,0.02611333927829,0.034808518648161,0.002253453169964,0.002030152056168,0.001847115947854,0.000663416958187,0.000681906488263,0.001211632970479,5.0780511892193E-06,4.12151737116409E-06,3.41183732481805E-06
sitting_chair_1,-1.0033276358,3.723519285,-9.28264036,-0.00020311353,0.00038262154,0.0002045703,0.025422739123441,0.023905669061663,0.032768999289955,0.0014975380816,0.001679729017121,0.00157578020786,0.000646315664539,0.000571481013286,0.001073807314465,2.24262030584322E-06,2.82148957095768E-06,2.4830832634848E-06
sitting_chair_1,-0.9984002674,3.724923706,-9.279569645,-0.0001264974,0.00015726176,-0.00011601807,0.020912373463649,0.0215551786999,0.035907718622297,0.001638605806164,0.001720877121852,0.001208664801985,0.000437327363883,0.000464625728785,0.001289364256658,2.68502898799459E-06,2.96141806851463E-06,1.46087060355801E-06
sitting_chair_1,-1.0007568316,3.723138431,-9.2873773,1.68695000000004E-06,-0.00017382749,-0.00018010516,0.021425672689263,0.021118956449759,0.038600343159031,0.001701805670007,0.001532324235675,0.001243809865342,0.000459059450187,0.000446010321527,0.001489986491995,2.89614253846722E-06,2.34801756323785E-06,1.54706298112327E-06
sitting_chair_1,-1.0037084892,3.720258186,-9.28937681,4.44129000000001E-05,0.00032816904,0.00024714593,0.023808743548574,0.021979865893103,0.035060175218291,0.001472375261675,0.001419022179742,0.001321100179707,0.000566856269362,0.000483114504679,0.001229215886337,2.16788891119308E-06,2.01362394660018E-06,1.7453056848211E-06
sitting_chair_1,-1.0000903271,3.718734746,-9.283068825,4.440322E-05,0.00033883138,0.00014032547,0.025591023726641,0.023369355896115,0.033281137822033,0.001332690726865,0.001590180432125,0.001241043900855,0.000654900495378,0.000546126794999,0.001107634134729,1.77606457347294E-06,2.52867380671385E-06,1.54018996384979E-06
sitting_chair_1,-0.9987335173,3.718544322,-9.28502079,0.00035414362,-0.00023793666,-0.00037236974,0.023776041041815,0.024396662276203,0.031948298254674,0.001386602974122,0.001709368982173,0.001187494393601,0.000565300127622,0.000595197130219,0.00102069376137,1.92266780784448E-06,2.92194231721619E-06,1.41014293483492E-06
sitting_chair_1,-1.0027325392,3.719306035,-9.284782715,1.23515000000001E-05,-7.771591E-05,-0.00051122173,0.022555247934273,0.025579539765655,0.034594341761922,0.00154093123559,0.001655064799076,0.001498112629579,0.000508739209377,0.000654312854623,0.001196768481941,2.3744690728173E-06,2.73923948913936E-06,2.24434145090264E-06
sitting_chair_1,-1.0068743853,3.721329341,-9.286068055,-8.379074E-05,0.00062722785,1.216342E-05,0.027960323117953,0.029235996077829,0.037039570474955,0.002496329008153,0.002893445740748,0.002030151034359,0.00078177966886,0.000854743466663,0.001371929780969,6.23165851694537E-06,8.37202825465296E-06,4.1215132223078E-06
sitting_chair_1,-1.0062792961,3.721948247,-9.28416379,-5.17974900000001E-05,0.00031743915,-0.00048982783,0.066980226381519,0.05221754106655,0.047878422168914,0.00604728687731,0.006430261896179,0.005527110728454,0.00448635072612,0.002726671595037,0.002292343309385,3.65696785764914E-05,4.13482680534489E-05,3.05489530045866E-05
sitting_chair_1,-1.0025897191,3.721495976,-9.28030761,0.00035406889,-0.00046229874,-0.00040437853,0.067743403751467,0.049684864210487,0.050393483465732,0.005900168443995,0.00611062678618,0.00545347932804,0.004589168751834,0.002468585731615,0.002539503175811,3.48119876675096E-05,3.73397597199848E-05,2.9740436781363E-05
sitting_chair_1,-1.001756588,3.719639284,-9.28490171,0.00068524993,-0.00036612311,0.00038600766,0.029088325778602,0.022518171699824,0.035053752510633,0.001931400891434,0.002117256363929,0.00148980171889,0.000846130696602,0.000507068056703,0.001228765565077,3.73030940343047E-06,4.48277451059624E-06,2.21950916160665E-06
sitting_chair_1,-1.0019232166,3.717139896,-9.28366392,0.00026871,-0.0002592863,-0.00012669113,0.022677580549411,0.02161100247345,0.030420646208057,0.001501207456544,0.001502871276852,0.001303300597371,0.000514272659575,0.000467035427907,0.000925415715716,2.25362382758307E-06,2.25862207478631E-06,1.69859244710824E-06
sitting_chair_1,-1.0041607657,3.715497437,-9.28368774,0.00047164514,-0.00052629938,-0.00028691028,0.022795542883617,0.021138301487965,0.031630392396299,0.001497158010381,0.00133541201602,0.001351266300432,0.000519636775359,0.000446827789796,0.001000481723144,2.24148210804675E-06,1.78332525252927E-06,1.82592061468232E-06
sitting_chair_1,-1.0077313247,3.714116821,-9.285949095,0.00023666556,-0.00028061753,-0.00027622726,0.020995846034655,0.022337082492606,0.027815706927331,0.00134401670457,0.001409321996581,0.001503338265106,0.000440825550711,0.000498945254281,0.000773713551867,1.80638090216251E-06,1.98618849004581E-06,2.26002593933167E-06
sitting_chair_1,-1.0106115739,3.712950442,-9.284021005,-0.00012874084,0.00030765214,8.422928E-05,0.020722602384074,0.022610687245249,0.030142584281195,0.001208140592005,0.001532814577839,0.001439396558424,0.000429426249568,0.000511243177702,0.000908575387149,1.45960369005036E-06,2.34952053003519E-06,2.0718624524014E-06
sitting_chair_1,-1.0055889875,3.711617432,-9.282449945,8.473319E-05,0.00036852743,0.00011479763,0.020926764655943,0.02275511805689,0.033247276337743,0.001438777529437,0.001514130649956,0.001168892586373,0.000437929478965,0.000517795397783,0.001105381383878,2.07008077921262E-06,2.29259162513596E-06,1.36630987847809E-06
sitting_chair_1,-1.0042559795,3.713402707,-9.28699643,9.746465E-05,1.20423199999999E-05,-8.691008E-05,0.020298125102444,0.022832017064774,0.033013738054994,0.001370367214115,0.001418631538707,0.001186619400199,0.000412013882674,0.000521301003246,0.001089906900364,1.87790630152219E-06,2.01251544261327E-06,1.40806560092775E-06
sitting_chair_1,-1.0084930388,3.712760013,-9.29397093,-0.00021229599,0.00018292801,0.00024420919,0.020535338812349,0.020020215136775,0.029806702137324,0.001322185968812,0.001407869783309,0.001247253468925,0.000421700140138,0.000400809014123,0.000888439492303,1.74817573612298E-06,1.98209732675389E-06,1.555641215745E-06
sitting_chair_1,-1.0047082457,3.714283453,-9.2918524,-7.338937E-05,0.00030040549,0.00035102809,0.021278570322732,0.020545516502675,0.034343580201702,0.001588769769582,0.001290834468746,0.001233301897124,0.000452777554979,0.000422118248362,0.001179481501071,2.52418938073603E-06,1.66625362570171E-06,1.52103356944881E-06
sitting_chair_1,-1.0027087363,3.713497928,-9.288519855,9.748802E-05,9.748689E-05,1.990871E-05,0.021215430242317,0.02201753928037,0.040671063844755,0.001411800271711,0.001265448464572,0.001294366171081,0.000450094480367,0.000484772035963,0.001654135434264,1.99318000720214E-06,1.60135981648765E-06,1.67538378483904E-06
sitting_chair_1,-1.0354150364,3.623805544,-9.30375425,0.04407181204,-0.02066663343,-0.01191095193,0.273048613758079,0.389528018795511,0.229756842968817,0.111519387796555,0.059716780182645,0.035110888228187,0.074555545475209,0.151732077426756,0.052788206890998,0.012436573854518,0.003566093835382,0.001232774472172
stand_up_chair_1,-0.38759704318,4.568408212,-8.395380886,-0.42367711279,0.23693079252,0.06654207839,1.36009001526039,1.89291826611333,2.16658898746889,0.614023349463436,0.342908947271569,0.137231977911012,1.84984484961101,3.58313956218551,4.69410784062147,0.377024673686297,0.117586546118896,0.018832615761369
stand_up_chair_1,1.60632080242,7.407429209,-3.2708227795,-0.67803802697,0.26622924615,0.04634399748,1.81348450211036,2.39764820802929,4.72738118094764,0.554546412172236,0.394820719467446,0.166578719603026,3.28872603939446,5.74871692946607,22.3481328299779,0.3075217232531,0.155883400520792,0.027748469824584
stand_up_chair_1,2.838829349,9.26150023,1.0406958004,-0.20757602016,0.01889646411,-0.03031462347,0.486244115516533,0.288382342233252,0.880057316334906,0.429562948929976,0.24038326236321,0.084145577121592,0.236433339874455,0.083164375311937,0.774500880034597,0.184524327093417,0.05778411282438,0.007080478149126
standing,2.745661624,9.30667967,1.1666650379,0.00256493651,0.01103512105,0.00097047988,0.037247879200109,0.055314318893553,0.109688989281779,0.009617314713515,0.029280738911955,0.005028679541277,0.001387404504906,0.003059673874658,0.012031674369658,9.24927422987857E-05,0.00085736167123,2.5287617928855E-05
standing,2.743543091,9.30477539,1.195919796,-0.00114141855,0.00037533685,-0.0008453079,0.030207351789356,0.027998445283007,0.042794555833114,0.003860149860338,0.006342864814543,0.002716946306295,0.000912484102126,0.000783912938266,0.001831374008954,1.49007569442652E-05,4.02319340555686E-05,7.3817972312927E-06
standing,2.741853026,9.30853636,1.197871704,0.0020629578,-0.00060734804,-0.00066371758,0.029775559953566,0.026956976622793,0.044695308807626,0.004936973365382,0.005442143185849,0.002180944325612,0.000886583970548,0.000726678588642,0.001997670629409,2.43737060104952E-05,2.96169224552865E-05,4.75651815142097E-06
standing,2.726071164,9.317915,1.15921448,0.00511777331,0.00117640677,-0.00106960783,0.023879336221941,0.025256943586334,0.050949779994485,0.003109767504488,0.005185018399636,0.001783794233123,0.000570222698401,0.000637913199323,0.002595880081486,9.67065393197179E-06,2.68844158045683E-05,3.18192186612451E-06
standing,2.71997741,9.323842165,1.129745479,0.00317167325,0.00125881004,-0.00077145439,0.021493024676409,0.023868710922488,0.039523973519163,0.002907189595275,0.004927431640316,0.00152606250938,0.000461950109741,0.000569715361101,0.001562144482744,8.45175134287375E-06,2.42795825699843E-05,2.3288667825363E-06
standing,2.717049552,9.32600833,1.117748407,0.00058692287,-0.00086214987,-2.989098E-05,0.024370416363903,0.022153997657151,0.037592723883003,0.002832856460751,0.003981681629163,0.001690005921741,0.00059391719375,0.000490799612193,0.001413212888944,8.02507572722076E-06,1.58537885960136E-05,2.85612001552095E-06
standing,2.714716796,9.330769035,1.102156982,-0.00178214051,-0.00083312985,6.103104E-05,0.047831056769989,0.027424999004379,0.042596285298021,0.004384105034102,0.010023925688412,0.002344551369231,0.002287809991734,0.00075213057039,0.00181444352119,1.92203769500371E-05,0.000100479086207,5.49692112296216E-06
standing,2.7083136,9.338838515,1.083042604,0.00386812553,-0.00120697021,-0.00018463284,0.054218277426953,0.039744910028696,0.073290527138302,0.008693817657448,0.012620458052839,0.003328374907498,0.002939621607146,0.001579657873189,0.00537150136821,7.5582465460947E-05,0.000159275961463,1.10780795248649E-05
standing,2.697673337,9.34676516,1.0177252218,0.00774537839,-0.00213623051,-0.00079345903,0.042013948576212,0.044830347493391,0.089676810364777,0.008336398455536,0.010265228502242,0.003651465047886,0.001765171874965,0.002009760056378,0.0080419303172,6.94955392094593E-05,0.000105374916203,1.33331969959353E-05
standing,2.68608093,9.35773863,0.9458856224,0.00189210692,-0.00083312988,-0.00035553271,0.046638803205045,0.073624907591224,0.066675392893966,0.011788920735997,0.011421091531585,0.005907731486707,0.002175177964399,0.005420627017816,0.004445608017565,0.00013897865212,0.000130441331773,3.4901291319025E-05
standing,2.688556516,9.35697692,0.9380065944,-0.00542449285,0.00713500994,-0.00185089225,0.152295062362363,0.21102849737139,0.089052078140859,0.026391583741384,0.029981456083335,0.018666302072615,0.023193786019956,0.044533026702827,0.007930272621206,0.000696515692378,0.000898887708877,0.000348430833066
standing,2.665704953,9.359571547,0.9738311824,0.00867462453,0.02111663804,0.00416259734,0.274547143063231,0.57781484430139,0.581898466070015,0.119747177967149,0.140027435278828,0.052705234979926,0.075376133764182,0.333869994295039,0.338605824814636,0.014339386631096,0.019607682630766,0.002777841794289
standing,2.613979493,9.392111197,0.95216980346,0.02184448262,0.01648101766,-0.00349578858,0.295629330357603,0.737147899292282,0.663423175201579,0.147955015483426,0.156868340721402,0.071234518553592,0.087396700967685,0.543387025431024,0.440130309394545,0.021890686606701,0.024607676320686,0.005074356633562
standing,2.555327149,9.40791685,0.88706665056,0.01028749549,-0.00177307147,-0.00888977061,0.20102035551923,0.504501990671366,0.33611761214493,0.094745950809599,0.078257537664472,0.050768558157355,0.040409183333078,0.254522258591371,0.11297504919401,0.008976795194815,0.006124242201306,0.002577446497377
standing,2.53695068,9.411892075,0.799302369,0.00235142293,-0.00807495128,0.00364990117,0.07729323733118,0.079570591962099,0.120710007430379,0.022708971427775,0.022244602799104,0.007761044031081,0.005974244537134,0.006331479105199,0.014570905893842,0.000515697383307,0.00049482235369,6.02338044523807E-05
standing,2.584296261,9.4151056,0.7092529289,0.00068515765,-0.00541534428,0.00360717653,0.058171945497211,0.042830398882857,0.060134864466229,0.00771402680852,0.014027317878133,0.006185761200813,0.00338397524293,0.001834443068465,0.003616201924372,5.95062096025621E-05,0.000196765646854,3.82636416334854E-05
standing,2.607243042,9.40677429,0.7026593004,-0.00213467974,-0.00161285399,0.0006484949,0.044911201793447,0.037786192877728,0.048443052811356,0.006016673167484,0.011152478628996,0.004630677936402,0.002017016046532,0.001427796372193,0.002346729365684,3.62003560043184E-05,0.00012437777957,2.1443178150683E-05
standing,2.603648686,9.40622682,0.7037304686,0.00039674834,-0.00071563721,-0.00048370938,0.032528495997115,0.029593912942787,0.044642358389123,0.006133034995282,0.005934511876763,0.001803312515632,0.001058103051834,0.000875799683265,0.001992940162543,3.76141182533524E-05,3.52184312154436E-05,3.25193602903442E-06
standing,2.60064942,9.410678115,0.6567657475,0.0043274201,-0.00225372315,0.00019988584,0.035377694250973,0.032102240696038,0.064229932666455,0.005185928339364,0.005616950298216,0.00296663980756,0.001251581250515,0.001030553857706,0.004125484250337,2.68938527410152E-05,3.15501306526313E-05,8.80095174779735E-06
standing,2.604219973,9.415057965,0.6216790758,-0.00063930186,-0.00175170898,0.00075530719,0.049473800827911,0.03821632748566,0.053734326422696,0.007789256393767,0.008951336362586,0.004037759360776,0.00244765696836,0.001460487686491,0.002887377836101,6.0672515167834E-05,8.01264226761462E-05,1.63035006555335E-05
standing,2.611218263,9.413939225,0.6349377431,-0.00828701738,0.0008331299,0.00113982889,0.049566814520852,0.035552564523446,0.057059391664822,0.007536945887967,0.009430381605435,0.003414647090888,0.002456869101745,0.001263984844194,0.00325577417716,5.68055533181446E-05,8.89320972241249E-05,1.16598147553072E-05
standing,2.612884527,9.39746705,0.7735943611,-0.0308456344,0.00456085206,0.00263518977,0.04233383404428,0.045316631618981,0.188371438618116,0.024834399273447,0.015542249250196,0.00344689496007,0.001792153504889,0.00205359710129,0.035483798887059,0.000616747387273,0.000241561511755,1.18810848657525E-05
standing,2.632379767,9.342385235,1.1663317911,-0.03786314838,0.00793609625,0.00307311729,0.048382329988073,0.061876214275789,0.31047335419983,0.025234887145837,0.017247082176451,0.003797448742166,0.002340849855075,0.003828665893103,0.096393703668093,0.000636799529263,0.000297461843601,1.442061694938E-05
standing,2.645019534,9.30829832,1.390158087,-0.00291441786,0.00272369388,0.00225066974,0.053792932245504,0.044362327233912,0.121304833976795,0.029008443043182,0.021390001129196,0.003473138848243,0.002893679559569,0.001968016077609,0.014714862746138,0.00084148976779,0.000457532148307,1.20626934591731E-05
standing,2.646233518,9.321676005,1.281875003,0.01379089628,-0.00395202639,0.00061645264,0.048346000852904,0.037715535347091,0.109175712080055,0.009821659335583,0.018874310254046,0.003265899941959,0.002337335798469,0.001422461606518,0.011919336108187,9.6464992104253E-05,0.000356239587566,1.06661024308883E-05
standing,2.642044065,9.341956755,1.155405884,0.00837556357,-0.00788269049,-0.00350647215,0.051426335597444,0.145230432346019,0.150410807217297,0.01741807934338,0.020206711977597,0.011190258771363,0.002644667992981,0.021091878479412,0.022623410927759,0.000303389488012,0.000408311208946,0.00012522189137
standing,2.609123538,9.364213265,1.0507171615,0.00479737749,-0.00734863297,-0.00424347089,0.118101367112285,0.175386423467149,0.198878906177137,0.024695206882688,0.054548456612383,0.013732575629868,0.013947932913791,0.030760397536598,0.039552819322215,0.000609853242979,0.002975534118793,0.00018858363343
standing,2.592246711,9.37168763,1.0041094935,0.00167847762,0.00217895496,-0.00064392279,0.116601464963956,0.112285386478087,0.166273038751841,0.019333066806221,0.055326815451608,0.010767461140536,0.013595901631741,0.012608008016534,0.027646723415771,0.000373767472134,0.003061056508016,0.000115938219413
standing,2.602291874,9.373806115,0.9713079801,-0.00183561871,0.00252075193,0.00108642364,0.052687956660939,0.063750336431271,0.111326042261304,0.013450952510734,0.023305263809546,0.007335711333642,0.002776020777105,0.0040641053951,0.012393487685566,0.000180928123446,0.000543135321233,5.38126607705193E-05
standing,2.609147336,9.36987853,0.9980395489,-0.00959014343,0.00119628907,0.00183410386,0.037365892786419,0.044156810123661,0.093623071035221,0.010542563222564,0.015137651651478,0.003608992869107,0.001396209943726,0.001949823880297,0.008765279430066,0.000111145639302,0.000229148497522,1.30248295292647E-05
standing,2.622572626,9.352525635,1.1118926988,-0.00738981836,0.00234985352,0.00102233627,0.04768955621617,0.029286361876976,0.08222736367653,0.008960064880057,0.017024986507395,0.003727985955767,0.002274293772095,0.000857690991989,0.006761339337192,8.02827626548392E-05,0.000289850165577,1.38978792863975E-05
standing,2.615812376,9.355929595,1.111630859,0.00806581832,-0.00114288334,-0.00243835691,0.054499663949093,0.034271798045716,0.097732576267958,0.014501629511327,0.015277819867254,0.004329051047234,0.002970213370564,0.001174556141286,0.009551656463972,0.000210297258484,0.000233411779896,1.8740682969562E-05
standing,2.59498413,9.380399825,0.9448144531,0.01371614022,-0.00460357674,-0.00126343063,0.045620623524688,0.033193513933134,0.13497748754401,0.010480135359716,0.012069740432093,0.004549445244368,0.002081241290781,0.001101809367229,0.018218922143694,0.000109833237158,0.000145678634098,2.06974520315002E-05
standing,2.596364746,9.39541993,0.8198687749,0.00404972718,-0.00655822756,0.00105437866,0.036581567675183,0.027534637740033,0.056440887296713,0.006998607192205,0.008531451983285,0.002700671324213,0.001338211093574,0.000758156275475,0.00318557375884,4.89805026307812E-05,7.27856729430951E-05,7.29362560142467E-06
standing,2.598102418,9.399537975,0.8065148938,-0.00025476565,-0.00138854976,7.62622999999994E-06,0.041192315237431,0.030587616363735,0.054141764426419,0.006748346247904,0.023562936036372,0.002353749159475,0.00169680683462,0.000935602274815,0.002931330655206,4.55401770816013E-05,0.000555211954654,5.54013510572737E-06
standing,2.650042111,9.367640985,0.85317016616,0.08502351897,-0.01162109373,0.00358581154,0.138651212099245,0.170780276109635,0.439087924559117,0.202150233740212,0.08991839984219,0.045956672040329,0.01922415861659,0.029165902708083,0.192798205493633,0.040864717001222,0.00808531863018,0.002112015705022
sit_down_chair_1,2.0949633756,8.379929807,-2.18484984934,0.5897186312,-0.23280639685,-0.06039428916,1.31399751133531,1.89990694427313,3.91121120372134,0.590766145546407,0.340290234232054,0.171113508699414,1.7265894597954,3.60964639689724,15.2975730801154,0.349004638723758,0.115797443513706,0.029279832859425
sit_down_chair_1,0.2481286625,5.548073733,-7.2797961095,0.53773346468,-0.24833679262,-0.05710449212,1.7198146949782,2.51378681216339,3.10965479271953,0.605967280713457,0.326233871584611,0.176298550846362,2.95776258506296,6.31912413700656,9.66995292988357,0.367196345295262,0.106428538969084,0.031081179030527
sit_down_chair_1,-0.9759771727,3.575222162,-9.33150935,0.02794346408,-0.03034515407,0.01173553308,0.265939913660507,0.332709861045995,0.231558024202822,0.080199174768058,0.070689231437754,0.059790260439893,0.070724037677758,0.110695851637246,0.053619118572715,0.006431907633477,0.00499696744126,0.00357487524347
sit_down_chair_1,-0.9628137213,3.481292729,-9.369666735,-0.00534965904,-0.00285186768,0.00528411622,0.05230155857905,0.046625153637489,0.054354677916685,0.012014348275933,0.011674047808469,0.014195740950013,0.002735453029798,0.002173904951719,0.002954431011427,0.000144344564495,0.000136283392234,0.00020151906112
sitting_chair_1,-0.9660272224,3.48034057,-9.37733152,-0.0015151211,-0.00145263674,0.00153503082,0.047634006849428,0.030018916007056,0.050773808810904,0.008620517720229,0.010436149980885,0.007397752720528,0.002268998608531,0.000901135318239,0.002577979661166,7.43133257647815E-05,0.000108913226424,5.47267453140743E-05
sitting_chair_1,-0.9617901614,3.474270616,-9.37585569,-0.00216667137,-0.00102539068,0.00109709882,0.028221731443501,0.02389610093735,0.035575075748465,0.002342146591756,0.002366176702601,0.002857419565769,0.000796466125669,0.000571023640008,0.001265586014509,5.48565065727349E-06,5.59879218792976E-06,8.16484657483669E-06
sitting_chair_1,-0.960909424,3.464963372,-9.37466557,-0.00196373025,-0.0013671876,0.00011443068,0.025166236904131,0.025683989616672,0.035919325098411,0.001505236353479,0.001757913665917,0.001159923993325,0.000633339479915,0.000659667322629,0.001290197915525,2.2657364798336E-06,3.09026045681741E-06,1.34542367029018E-06
sitting_chair_1,-0.9685028082,3.454584956,-9.3850202,-0.00193168607,-0.00132446296,-8.85090700000001E-05,0.030481742933623,0.036964076570565,0.03842266766421,0.004598247945149,0.002737394316137,0.001782908674626,0.000929136652271,0.001366342956715,0.001476301390434,2.11438841650649E-05,7.49332764202089E-06,3.17876334205635E-06
sitting_chair_1,-0.9681219479,3.452752076,-9.38261602,-0.0015792142,-0.00050201417,0.00016784001,0.03360144711961,0.042047949048344,0.040647454878573,0.005607683832738,0.003358705303072,0.002499195668326,0.001129057248532,0.001768030019172,0.001652215588106,3.14461179679482E-05,1.12809013128814E-05,6.24597898857751E-06
sitting_chair_1,-0.9643133542,3.455775146,-9.38097356,-0.00099849987,7.402632E-05,-4.56047400000001E-05,0.025706312874576,0.031046303279637,0.037428343559763,0.003601700731589,0.002532739562449,0.00210489499885,0.000660814521606,0.000963872947331,0.001400880901628,1.29722481599253E-05,6.41476969119523E-06,4.43058295618298E-06
sitting_chair_1,-0.9613140866,3.453585201,-9.38323489,-0.00056824331,0.00018851056,-0.00054911394,0.024870403368776,0.019405871869334,0.034875113178599,0.001693762667912,0.00166658135555,0.001207772053856,0.000618536963726,0.000376587863009,0.00121627351922,2.86883197521199E-06,2.77749341466835E-06,1.4587133340765E-06
sitting_chair_1,-0.9639324926,3.449467163,-9.387162495,-0.00025941138,6.87606E-05,-0.00048669348,0.025059996188069,0.019474718038278,0.034639533490098,0.001574051881241,0.001482596389892,0.001315257037636,0.000628003408946,0.00037926464267,0.001199897280412,2.47763932483901E-06,2.19809205532214E-06,1.72990107505229E-06
sitting_chair_1,-0.9680267307,3.446277462,-9.38951903,-0.000163281,0.00025034726,-0.00036918142,0.022309342182261,0.022762472933884,0.033272049307038,0.00136882138035,0.001349139114806,0.001241005033812,0.000497706748605,0.000518130174066,0.00110702926509,1.8736719713038E-06,1.82017635110015E-06,1.54009349394556E-06
sitting_chair_1,-0.971145018,3.4420404,-9.38832885,-0.00022736864,0.00049601149,-0.00029440634,0.024062210014865,0.024047993414147,0.032573171257884,0.001277908526849,0.00138615724273,0.001171006165206,0.000578989950799,0.000578305987247,0.001061011485795,1.63305020299314E-06,1.92143190157231E-06,1.37125543895067E-06
sitting_chair_1,-0.972787474,3.439160159,-9.390542635,-0.00037690408,0.00056008083,-0.00013421367,0.024919646956292,0.025339570404513,0.032514986024462,0.001400445985474,0.001560735254242,0.002275812317446,0.000620988804426,0.000642093828285,0.001057224316171,1.96124895823046E-06,2.4358945338344E-06,5.17932170423705E-06
sitting_chair_1,-0.9622900379,3.436232306,-9.39151858,-0.00018463806,0.0019379096,-0.00012356597,0.050509682481622,0.028797691063757,0.034495678270869,0.002409298885883,0.005382470830608,0.004253688254885,0.002551228024394,0.000829307010604,0.001189951819367,5.80472112151668E-06,2.89709922423495E-05,1.80938637697472E-05
sitting_chair_1,-0.9514593494,3.432066651,-9.394041735,-0.0002380431,0.00125431115,-0.00062557614,0.050966338146862,0.028722816132618,0.036342290603933,0.002590130111864,0.005840282173758,0.003934042242703,0.0025975676241,0.000825000166588,0.001320762086341,6.70877399638472E-06,3.41088958691179E-05,1.54766883673679E-05
sitting_chair_1,-0.9567199707,3.430209965,-9.39182802,-0.00053711888,-0.00036919358,-0.00081781869,0.027459856943787,0.024131564042018,0.035408635434851,0.001916240365597,0.002555369636166,0.001773596300397,0.000754043743373,0.000582332383114,0.001253771463358,3.67197713874399E-06,6.52991397743675E-06,3.14564383678179E-06
sitting_chair_1,-0.9587432874,3.435589598,-9.388400325,-0.00054779687,0.00018620993,-0.00090328313,0.031420208389285,0.02832576472283,0.039395608136393,0.003844419583744,0.003550391133832,0.001981306682493,0.000987229495226,0.000802348947133,0.001552013940436,1.47795619358741E-05,1.26052772031936E-05,3.9255761700906E-06
sitting_chair_1,-0.957672119,3.437541498,-9.393327645,-0.00047302777,0.00029302142,-0.00078579047,0.031755183753757,0.027399929313073,0.039146858165036,0.003842156005712,0.00343121512346,0.001998994408812,0.001008391695235,0.000750756126361,0.001532476504193,1.47621627722267E-05,1.17732372234638E-05,3.99597864646344E-06
sitting_chair_1,-0.9605761717,3.4311145,-9.39716001,-0.00017551149,0.00027456207,-0.0003194345,0.024800980791776,0.02147818218542,0.033849643155392,0.00209973417022,0.001840437971623,0.001497754791153,0.000615088648234,0.00046131230999,0.001145798341747,4.40888358558908E-06,3.3872119273915E-06,2.24326941442205E-06
sitting_chair_1,-0.9617901625,3.430186152,-9.396255515,0.0001723323,-5.966708E-05,0.00028484657,0.024423154998334,0.024419870121278,0.035544128167663,0.002469742527718,0.002210092089111,0.00141966908666,0.000596490500073,0.00059633005674,0.001263385047199,6.0996281532173E-06,4.88450704235086E-06,2.01546031561827E-06
sitting_chair_1,-0.9639801025,3.430924067,-9.394065555,7.30887700000001E-05,0.00018000947,0.00064710832,0.022341389328105,0.025748969483865,0.038007251783918,0.002094385768779,0.002035796853958,0.001235897258225,0.00049913767711,0.000663009429481,0.001444551188166,4.38645174846311E-06,4.14446883058603E-06,1.52744203288869E-06
sitting_chair_1,-0.9627185053,3.426806028,-9.397588475,0.00023325268,0.00027614063,0.00039078768,0.021070875800799,0.023551157154479,0.038522735029767,0.001400451373795,0.001624178828355,0.00112869461901,0.000443981807013,0.000554657003315,0.001484001114174,1.96126405036487E-06,2.63795686647599E-06,1.27395154298131E-06
sitting_chair_1,-0.96300415,3.42071228,-9.401587535,0.00055368649,-6.565877E-05,5.96949700000001E-05,0.022099254564713,0.022319604938065,0.034161604432392,0.001313881998116,0.001426533654054,0.001097393836934,0.000488377052316,0.000498164764591,0.001167015217395,1.72628590497433E-06,2.03499826614739E-06,1.2042732333408E-06
sitting_chair_1,-0.9665270981,3.42092651,-9.396184095,0.00040418755,-3.360445E-05,0.00054030546,0.02319840592225,0.023959232784286,0.03071450685436,0.001798713935435,0.001994622175996,0.003062647470448,0.000538166037333,0.000574044835612,0.000943380931307,3.2353718215292E-06,3.97851762497585E-06,9.37980952824264E-06
sitting_chair_1,-0.9613616939,3.419450679,-9.399754665,0.001013045,-1.54426000000003E-06,0.00183264815,0.033546012262878,0.031151936872126,0.038124150589912,0.004451807545585,0.003733714855854,0.005590107773573,0.001125334938741,0.000970443170885,0.001453450858202,1.98185904229296E-05,1.39406266248236E-05,3.12493049201598E-05
sitting_chair_1,-0.9586480709,3.411071776,-9.40734802,0.00097032812,0.00010526612,0.00104222304,0.041846823606395,0.030903873144781,0.041050081719485,0.004634935920091,0.004349064584686,0.005853242120185,0.001751156645945,0.000955049375349,0.001685109209176,2.14826309833471E-05,1.89143627617717E-05,3.4260443317509E-05
sitting_chair_1,-0.9652178939,3.405692142,-9.40899047,0.00037215997,-0.00011903601,0.00019842749,0.038379615409076,0.024729425068718,0.039156442991564,0.002352305685508,0.003288544502789,0.003539276262082,0.001472994878949,0.000611544464229,0.001533227027752,5.53334203807415E-06,1.08145249468237E-05,1.25264764593369E-05
sitting_chair_1,-0.9684075923,3.403621219,-9.4063721,0.0006071492,-0.00015108205,0.00059364967,0.034231897614912,0.026830285379714,0.036375494306614,0.002306510854705,0.002335463696662,0.002338397695406,0.001171822814318,0.000719864213557,0.001323176586051,5.31999232287366E-06,5.45439067842781E-06,5.4681037818799E-06
sitting_chair_1,-0.9744061287,3.401526492,-9.40349187,3.04122500000001E-05,0.0005645485,-0.00123285438,0.048125257852523,0.026885351749645,0.032700875276614,0.003495044320771,0.003886889584243,0.004596082463623,0.002316040443372,0.000722822138702,0.001069347243857,1.22153348041526E-05,1.51079106400974E-05,2.11239740124229E-05
sitting_chair_1,-0.9741442874,3.402383425,-9.40372987,-0.00065317304,0.00024411328,-0.00100854302,0.051575322354488,0.025235740828246,0.037151804086367,0.003231611722877,0.004418321077939,0.004736199495684,0.002660013875969,0.00063684261515,0.001380256546872,1.04433143274359E-05,1.95215611477597E-05,2.2431585662921E-05
sitting_chair_1,-0.9683123761,3.409952999,-9.39639828,-3.37331799999999E-05,-0.00032200376,0.00040144122,0.034092773203655,0.025134790977627,0.038371642965283,0.001927619312611,0.002809417133002,0.002103009457608,0.001162317184716,0.000631757717489,0.001472382983855,3.71571621434954E-06,7.89282462720487E-06,4.42264877878967E-06
sitting_chair_1,-0.9703118869,3.412714226,-9.396564935,0.00041485277,0.00020136825,-0.00011121154,0.020210354168188,0.023683953080939,0.033874788600604,0.001358930925623,0.001703583690983,0.001074519219509,0.000408458415604,0.00056092963354,0.001147501302736,1.84669326061578E-06,2.90219739218158E-06,1.15459155309449E-06
sitting_chair_1,-0.9746441647,3.411809694,-9.401944635,-0.00018323913,0.00030818933,-8.986305E-05,0.021176884239693,0.024838712473902,0.034097452761275,0.001690518642415,0.002013030116764,0.001254252978125,0.000448460426101,0.000616961637361,0.001162636284807,2.85785328035315E-06,4.05229025099715E-06,1.57315053313593E-06
sitting_chair_1,-0.9740014644,3.415999147,-9.39751716,-0.00032208016,0.00024410255,-0.00016466447,0.029659307018249,0.025573398356071,0.038892567526228,0.00246319500631,0.002385966481444,0.00181241129197,0.000879674492803,0.000653998703478,0.001512631808782,6.06732963911288E-06,5.69283605057444E-06,3.28483469126126E-06
sitting_chair_1,-0.971073606,3.417522578,-9.39082829,0.00013719048,0.00016933449,-0.00019671252,0.029053726769878,0.025609274993175,0.035598946785591,0.002482990325122,0.002377522173079,0.001847264476232,0.000844119039219,0.000655834965676,0.001267285012243,6.16524095464724E-06,5.65261168348449E-06,3.41238604514975E-06
sitting_chair_1,-0.9732635486,3.416260984,-9.39235168,0.00082077924,9.455889E-05,0.00012370044,0.020875339040864,0.026038873550489,0.032638883258566,0.001991184645168,0.001821909040775,0.001589738742611,0.000435779780071,0.000678022935778,0.001065296700366,3.96481629115433E-06,3.31935255285737E-06,2.52726926975922E-06
sitting_chair_1,-0.9756201162,3.413380737,-9.396184065,0.00078870131,0.00018000134,0.00019848261,0.021294167567906,0.023442907489213,0.032973732026506,0.001750173633098,0.001446793599948,0.001514319509734,0.00045344157241,0.000549569911548,0.001087267003756,3.06310774598993E-06,2.09321172084903E-06,2.29316357756107E-06
sitting_chair_1,-0.9729779054,3.409024657,-9.400064095,0.00056437235,0.00023340977,-0.00019670332,0.022193289562717,0.019932543897017,0.032511520745737,0.001420131946823,0.001475776305054,0.001790227352716,0.000492542101615,0.000397306306207,0.0010569989812,2.01677474638859E-06,2.17791570255941E-06,3.20491397441355E-06
sitting_chair_1,-0.9723352075,3.408691406,-9.400492565,0.00075665514,0.00012660118,-0.00017534676,0.023892737374854,0.022109299344959,0.03322991762124,0.001372117051815,0.00157694323982,0.001843011834957,0.000570862899264,0.000488821117525,0.001104227425114,1.88270520388208E-06,2.48674998161251E-06,3.39669262379331E-06
sitting_chair_1,-0.9740252702,3.403335576,-9.400421145,0.00024393769,0.0006072584,0.00019848407,0.021558575464757,0.024998756248513,0.032238164477922,0.00125190591483,0.001572016083049,0.001499031697698,0.00046477217607,0.000624937813973,0.001039299248906,1.56726841958614E-06,2.4712345653661E-06,2.24709603070392E-06
sitting_chair_1,-0.9706689458,3.403264162,-9.40230167,-7.65297899999999E-05,0.00102382295,0.00016644635,0.020625148548758,0.022486821552067,0.032006605733613,0.001012665531491,0.001406715948764,0.001366784252514,0.000425396752658,0.000505657143514,0.001024422810587,1.02549147867053E-06,1.97884976050793E-06,1.86809919292118E-06
sitting_chair_1,-0.964741821,3.409738766,-9.399183425,0.00016917004,0.00078883684,-0.0001859724,0.023578017786327,0.02120636378104,0.030366686971052,0.001209325448277,0.001452178543814,0.001107519170415,0.000555922922732,0.000449709864814,0.000922135677598,1.46246803985044E-06,2.10882252311399E-06,1.226598712836E-06
sitting_chair_1,-0.9647180163,3.405858763,-9.40175419,0.00062847745,0.0006606675,-6.846821E-05,0.022782266342693,0.023477644579333,0.029760959554506,0.00128752119253,0.001390555071114,0.001066737441,0.000519031659709,0.000551199794993,0.000885714713605,1.65771082121286E-06,1.93364340580197E-06,1.13792876803221E-06
sitting_chair_1,-0.967907712,3.401121829,-9.4033728,0.00057504577,0.00048975386,5.969294E-05,0.022150683098862,0.023173225220283,0.03048263047933,0.001261975205366,0.00122262244659,0.001043589844013,0.000490652761746,0.00053699836711,0.000929190760939,1.59258141895933E-06,1.49480564690562E-06,1.08907976252606E-06
sitting_chair_1,-0.9725018286,3.397860727,-9.400849615,0.00041483112,0.00047907732,-0.00022870941,0.021825588432399,0.022718627010682,0.029487765747459,0.001262197912364,0.001387939506788,0.001100028600121,0.00047635631042,0.00051613601325,0.000869528328777,1.59314356997582E-06,1.92637607450188E-06,1.21006292108479E-06
sitting_chair_1,-0.976024779699999,3.398860483,-9.40170656,0.00026530543,0.00075679021,1.693582E-05,0.020712722426006,0.018742380518235,0.030074045007238,0.001240625452321,0.00140363384143,0.001336084740019,0.000429016870297,0.00035127682749,0.000904448183097,1.53915151294566E-06,1.97018796080857E-06,1.78512243251166E-06
sitting_chair_1,-0.969502563,3.402169191,-9.40292051,3.03588100000001E-05,0.00092768285,1.69223E-05,0.029424272282581,0.019413530198683,0.03418490891793,0.001642106566005,0.001588798260503,0.001566370895545,0.000865787799359,0.000376885154775,0.001168607997727,2.69651397411785E-06,2.52427991257742E-06,2.4535177824092E-06
sitting_chair_1,-0.9590527341,3.402240599,-9.40284908,6.24386300000001E-05,0.00166470458,0.00021985099,0.037697830479229,0.024180430120054,0.035821397029641,0.002237682413603,0.002787201655036,0.002020202184539,0.001421126422841,0.000584693200791,0.001283172485155,5.00722258414702E-06,7.76849306583608E-06,4.08121686641528E-06
sitting_chair_1,-0.9521496562,3.402431032,-9.39854064,0.00019059231,0.00099179828,0.00040143059,0.034257190828376,0.025483504645717,0.034778939577011,0.002477777577218,0.003153601566554,0.001907615695809,0.001173555123452,0.000649409009028,0.001209574638101,6.13938172216519E-06,9.94520284057465E-06,3.63899764289826E-06
sitting_chair_1,-0.9540777585,3.400883794,-9.39942136,0.0002652981,-0.00012973305,-0.00020740374,0.028415029564772,0.024594736996028,0.031964811608424,0.001900904304818,0.00212744235614,0.001743437608728,0.000807413905167,0.000604901087904,0.001021749181162,3.61343717607433E-06,4.52601097870015E-06,3.03957469552757E-06
sitting_chair_1,-0.9597192404,3.39345703,-9.40073059,3.03011500000001E-05,0.00030819088,-0.00015399135,0.027765627561009,0.025023651481181,0.033919743694341,0.001323448949973,0.001864429070405,0.001728659112088,0.000770930073857,0.000626183133452,0.00115054901229,1.75151712318587E-06,3.4760957585711E-06,2.98826232580486E-06
sitting_chair_1,-0.9572674584,3.390600585,-9.39835027,3.03131000000001E-05,0.00083156546,0.00030530452,0.026798051258375,0.025235469685499,0.034535104377514,0.001525703334963,0.00178586311869,0.001432175325844,0.000718135551246,0.000636828930248,0.001192673434366,2.32777066631595E-06,3.18930707869728E-06,2.05112616395639E-06
sitting_chair_1,-0.9550537123,3.397337038,-9.405419965,0.00036143309,0.0008956406,0.00021987975,0.024987022651493,0.024958623873672,0.032042264422233,0.001450590518798,0.001547461631508,0.001252592397048,0.000624351300986,0.000622932905667,0.001026706709304,2.10421285322614E-06,2.39463750098822E-06,1.56898771314231E-06
sitting_chair_1,-0.9595288079,3.398074954,-9.40613407,0.00040416583,0.00045770389,-6.849556E-05,0.023674615752298,0.021756814510013,0.030922400151041,0.00136107824697,0.001223990109425,0.001139883314785,0.000560487431019,0.000473358977623,0.000956194831101,1.85253399437471E-06,1.49815178797097E-06,1.29933397132589E-06
sitting_chair_1,-0.9636944592,3.397027593,-9.40063539,0.00014780074,0.00037227306,-0.00021806449,0.02471573801753,0.019621389362731,0.027958388358035,0.001228614248876,0.001512684650105,0.001500567216945,0.000610867705751,0.000384998920524,0.000781671479579,1.50949297254116E-06,2.28821485066192E-06,2.25170197256898E-06
sitting_chair_1,-0.9461273174,3.416094366,-9.395089095,0.00816934508,-0.00124056769,-0.00321947689,0.060938139951525,0.078879088904332,0.057582388664079,0.034309626220685,0.010739138752337,0.015220596599049,0.003713456900752,0.006221910666377,0.003315731484261,0.001177150451403,0.000115329101142,0.000231666560831
stand_up_chair_1,-0.8313220158,3.58740967,-9.337079465,-0.27111063902,0.133267195,0.0359589281,0.735726727749303,1.15546781925098,1.02600718741697,0.559522072899403,0.259668839105522,0.169432337254889,0.541293817924697,1.33510588132462,1.05269074863128,0.313064950061645,0.06742790600241,0.028707316907655
stand_up_chair_1,1.0264147955,6.320051886,-4.7623632851,-0.656689449,0.25378265305,0.0543197657,1.93882256874739,2.88780125877368,5.00415155827389,0.632533115527847,0.354847207372283,0.206134453899451,3.75903295308422,8.33939611017485,25.041532818175,0.400098142239364,0.125916540579908,0.042491413084425
stand_up_chair_1,2.78631836,9.079877941,0.6253210529,-0.3725814915,0.12404937666,0.0128555349,0.348184886948458,0.597667203564375,2.02880941525974,0.556592135977063,0.302228023182123,0.12501851827895,0.12123271549931,0.35720608621646,4.11606764344656,0.309794805831509,0.091341777996574,0.015629629912664
stand_up_chair_1,2.742567144,9.28244752,1.3631884753,0.02332609913,0.01230315965,-0.00438383975,0.184056184659164,0.118834246798753,0.230797010800608,0.033383252596594,0.055804313547801,0.014202723053701,0.033876679111288,0.014121578212227,0.053267260194496,0.001114441553928,0.003114121410541,0.00020171734214
standing,2.67141785,9.315249045,1.2169622773,0.02011108007,0.00811614781,-0.00395657582,0.107387112111839,0.083498558141852,0.168088832842467,0.031669777679731,0.052255046486038,0.011551641248848,0.011531991847721,0.006972009211768,0.028253855726343,0.001002974818284,0.002730589883258,0.000133440415542
standing,2.628833009,9.33721986,1.164141847,0.00589446641,0.00036162805,-0.00261072283,0.04333727923599,0.038656061279531,0.078217739096615,0.011735917752192,0.027434872982801,0.004736215673211,0.001878119771578,0.001494291073647,0.006118014709386,0.000137731765486,0.000752672255582,2.24317389031669E-05
standing,2.606076657,9.357143555,1.094825442,0.0101135216,-0.00035401503,-0.00140373942,0.034673411113222,0.029888817499606,0.062877794037593,0.004030183274945,0.009533371127871,0.002395642518956,0.001202245438227,0.000893341411525,0.003953616983034,1.62423772296455E-05,9.08851650617326E-05,5.73910307863075E-06
standing,2.594222401,9.370664065,1.0113458281,0.00970763777,6.25473000000001E-05,-0.00143576098,0.029563044199065,0.028156565779373,0.07162530136203,0.004249263769252,0.00730774988484,0.00205408547053,0.000873973582316,0.000792792196488,0.005130183795202,1.80562425806738E-05,5.34032083793763E-05,4.21926712024412E-06
standing,2.582463375,9.378281245,0.948575442,0.0046767871,0.00134428589,-0.00067739687,0.025393893241456,0.028189531011422,0.045623177482265,0.006176826065177,0.006004781932842,0.002038421365758,0.000644849813958,0.000794649658644,0.002081474323578,3.81531802394502E-05,3.60574060609806E-05,4.15516166437931E-06
standing,2.58284424,9.378995385,0.9583111568,-0.00085608895,0.00236967999,0.00071113309,0.032695216672974,0.029239575702235,0.049819749399494,0.006280178182533,0.007061446262293,0.00268749226141,0.001068977193293,0.000854952787247,0.002482007430228,3.94406380043572E-05,4.98640233152449E-05,7.22261465514061E-06
standing,2.591127931,9.37621034,1.002109989,-0.0030884483,0.00106657838,0.00104225632,0.03169839471851,0.024209211769999,0.043538089541187,0.003660791897858,0.006397633918522,0.002662132205747,0.00100478822773,0.000586085934525,0.001895565240896,1.34013973194244E-05,4.09297197554259E-05,7.08694788087271E-06
standing,2.589509283,9.368307485,1.0518597471,-0.00524600197,0.00063932999,0.00019845275,0.025802617606344,0.024180626474082,0.051913810508673,0.003660623192947,0.003165105426777,0.002218261693269,0.000665775075339,0.000584702696679,0.00269504372153,1.34001621607416E-05,1.00178923626115E-05,4.92068493982407E-06
standing,2.587081308,9.356167595,1.111892703,-0.00321658685,0.00235899819,9.164121E-05,0.027390405438312,0.024989637296802,0.053718535733482,0.005747987092938,0.004836650295858,0.001985225761424,0.000750234310075,0.000624481972226,0.002885681081349,3.30393556205865E-05,2.33931860844208E-05,3.94112132382132E-06
standing,2.593317883,9.35397767,1.1270794703,0.0022094068,0.00219878065,2.755112E-05,0.027797685264886,0.030558223929465,0.037176859687473,0.00403477919738,0.005791025886171,0.002044821583018,0.000772711306086,0.000933805049723,0.001382118896222,1.62794431716094E-05,3.35359808143041E-05,4.18129530637601E-06
standing,2.593889167,9.358928865,1.1036090153,0.00359797517,0.00021207764,-0.00021813003,0.030494610024231,0.032040556859202,0.042501968329846,0.003667631329452,0.006105646089477,0.002300864941769,0.00092992124053,0.001026597283848,0.001806417311911,1.34515195687808E-05,3.72789141699463E-05,5.29397948026045E-06
standing,2.58382019,9.365831955,1.071450202,0.00517880703,-0.00287476903,-0.00064535827,0.035209893617225,0.033083068566996,0.053854737209077,0.00420610692396,0.009152682412489,0.002381603157668,0.001239736608536,0.001094489425809,0.002900332719859,1.76913354557839E-05,8.37715953438922E-05,5.67203360061275E-06
standing,2.575893557,9.374115615,1.013107301,0.01085051167,-0.00200958304,-0.00211936649,0.038270772416126,0.040841126842089,0.063858619913689,0.007319429383592,0.010164705335998,0.003392884648368,0.001464652021327,0.001667997641732,0.004077923337281,5.35740465013964E-05,0.000103321234568,1.15116662371314E-05
standing,2.564777227,9.39032591,0.9110607882,0.01137387728,-0.00061035204,-0.00100854645,0.048884376743057,0.044386427316309,0.089029761375898,0.008107567617499,0.013003048162317,0.004358602207744,0.002389682289557,0.001970154929906,0.007926298410649,6.57326526723207E-05,0.000169079261512,1.89974132053498E-05
standing,2.568942877,9.40094239,0.8354363993,0.00296780112,-0.00020447133,0.00064704222,0.048015980052947,0.037001914508589,0.052772642271512,0.007947329221347,0.012457348654593,0.003134442691723,0.002305534340445,0.001369141677301,0.002784951772317,6.31600417524705E-05,0.000155185535502,9.82473098769741E-06
standing,2.575750737,9.39841921,0.8416253646,-0.00100558719,0.00198515874,0.00072181259,0.050558026986108,0.032736714978164,0.048461643534162,0.006498424063135,0.011929491054297,0.003084088317294,0.002556114092728,0.001071692507562,0.002348530894032,4.22295153043276E-05,0.000142312756815,9.51160074886811E-06
standing,2.580154419,9.39073061,0.888685301,-0.00437014475,0.00045775704,0.00158698883,0.053802112997978,0.034558437742466,0.060416382692025,0.007460711509053,0.013364920171281,0.003312177853679,0.002894667363047,0.0011942856192,0.003650139297589,5.56622162213112E-05,0.000178621091185,1.09705221344021E-05
standing,2.598935547,9.37575808,0.9642144786,-0.0073501812,0.00111999185,0.00150153927,0.043006535706209,0.032526339530931,0.069770444152018,0.00473430132601,0.010789977690926,0.00277315243249,0.001849562113449,0.001057962763281,0.00486791487717,2.24136090454583E-05,0.000116423618571,7.69037441382529E-06
standing,2.610123293,9.365498675,1.0305078141,-0.00508581485,0.00173949495,-2.58595199999999E-05,0.049491385995339,0.05626541734464,0.070518075806842,0.007604213271531,0.013272339104287,0.004565817234329,0.00244939728774,0.003165797188967,0.0049727990155,5.78240594789267E-05,0.000176154985299,2.08466870172931E-05
standing,2.597459714,9.361309165,1.0827331555,-3.36282200000001E-05,0.00241240721,-0.00045312454,0.055286731371701,0.058888551608447,0.071352101012989,0.008873363900903,0.018787383681379,0.005274566276946,0.003056622665767,0.003467861510541,0.005091122318968,7.87365869178465E-05,0.000352965785591,2.78210494098919E-05
standing,2.586486207,9.36059505,1.0911834708,0.0033309391,0.00404662226,-0.00068810124,0.041154507964581,0.032693596149543,0.049202480185263,0.004359263086915,0.016551573050265,0.003642487847964,0.001693693525807,0.001068871229189,0.002420884056381,1.90031746609401E-05,0.000273954570438,1.32677177225658E-05
standing,2.584677135,9.36587948,1.0592626945,0.00616145884,-0.001432806,-0.0009764602,0.032631855991918,0.028596086444901,0.052646003746966,0.004193620520342,0.012846349469686,0.002036859880401,0.001064838025477,0.000817736159964,0.002771601710526,1.7586453068634E-05,0.000165028694697,4.14879817238566E-06
standing,2.583225108,9.372163675,1.0083465564,0.00558466845,-0.00137940255,-0.00013264546,0.032811659535806,0.025981111468493,0.064063533659062,0.005315751466829,0.01266769081671,0.0018020418818,0.001076605001494,0.000675018153138,0.004104136344886,2.82572136570966E-05,0.000160470390628,3.24735494376066E-06
standing,2.582272953,9.375091555,0.971593625799999,0.00432427927,0.002561937,-0.00035694304,0.026577624352004,0.024671231406552,0.038510833880304,0.004820467784578,0.00706725505452,0.001686328490599,0.000706370116196,0.000608669659116,0.001483084326156,2.32369096621564E-05,4.99460940056408E-05,2.84370377820713E-06
standing,2.578845216,9.380423575,0.9373876931,0.00627896535,0.00140837897,-0.00078419286,0.025071632228383,0.027822447965715,0.052481374113916,0.003838822933184,0.006219047687699,0.002040126562065,0.000628586742595,0.000774088610805,0.002754294628885,1.47365615123376E-05,3.86765541418804E-05,4.16211638924109E-06
standing,2.575845953,9.385993675,0.8983258019,0.00407864906,0.0016967701,-0.00065602738,0.027314236007841,0.025842043096393,0.035226406994913,0.00444355799624,0.006391623765752,0.002095403784925,0.000746067488692,0.000667811191396,0.001240899749771,1.97452076659493E-05,4.08528543629296E-05,4.39071702187737E-06
standing,2.571965951,9.385731835,0.9089422573,-0.00167848274,0.0012161108,0.00013438966,0.024484803489105,0.022544330190598,0.044543101927431,0.005371767824712,0.004342279441976,0.00165275303407,0.0005995056019,0.000508246823743,0.001984087929317,2.88558895626149E-05,1.88553907522099E-05,2.73159259162778E-06
standing,2.574512946,9.38066161,0.9569543441,-0.00570923239,0.0009182599,0.0006886922,0.025233833635521,0.020187062715479,0.055580205835278,0.002316117354031,0.002641800751974,0.00135121742071,0.000636746359945,0.000407517501079,0.003089159280692,5.36439959764547E-06,6.97911121312831E-06,1.82578851802945E-06
standing,2.583058474,9.36923581,1.0052520766,-0.00397580287,0.00049253423,0.00076334727,0.026238850219504,0.021492155848449,0.0397254764628,0.00355518646228,0.003608891182057,0.001499161021048,0.000688477260842,0.000461912763014,0.001578113480196,1.26393507815819E-05,1.30240955639292E-05,2.2474837670298E-06
standing,2.589057013,9.36537959,1.001967167,0.00033575818,-0.0002868834,-0.00016486761,0.023427133060679,0.023108462201542,0.040329425933804,0.004220890088283,0.005296850793377,0.002007274190695,0.000548830563443,0.00053400102532,0.00162646259615,1.78159131373672E-05,2.80566283272941E-05,4.02914967662856E-06
standing,2.647995007,9.280138511,0.246865849,0.21685336962,-0.07442475061,0.02205197493,0.262194580178341,0.448921485737475,1.75556606078129,0.318698607199715,0.338536054830757,0.098781960383937,0.068745997874897,0.201530500356742,3.08201219376714,0.101568802231038,0.114606660420374,0.009757875697294
sit_down_chair_1,1.8493090881,7.883336769,-3.5663934456,0.60529480078,-0.23556061138,-0.06442261331,1.39224053842904,2.04665729949779,4.00224074673499,0.471133988511817,0.403204294506274,0.180284376818515,1.93833371684519,4.18880610158757,16.0179309948258,0.221967235131052,0.162573703108302,0.03250245652484
sit_down_chair_1,0.07819397083,5.117059925,-7.960201399,0.40626220847,-0.1801254286,-0.0798355106,1.42702570402836,2.13705158211221,2.39648897921078,0.532305994077549,0.260413659829784,0.165779615851322,2.03640235995763,4.56698946460829,5.74315942747874,0.283349671330888,0.067815274225943,0.027482881031812
sit_down_chair_1,-0.85612548807,3.567224122,-9.335936835,0.01165772097,-0.02261047447,0.01001433945,0.281402722136403,0.406767045008967,0.251868883694343,0.085914308670882,0.044249981441755,0.095665931805045,0.079187492025778,0.165459428905327,0.063437934573435,0.007381268434396,0.001958060857596,0.009151970508127
sit_down_chair_1,-0.8846185316,3.493432614,-9.380473625,-0.00652158454,-0.00343780672,0.00117032924,0.139187555257728,0.074935114522229,0.099137727635493,0.021207021146404,0.018992022578745,0.042905669238731,0.019373175538623,0.00561527138846,0.009828289040729,0.000449737745904,0.000360696921632,0.001840896452823
sitting_chair_1,-0.8937353508,3.506762693,-9.369595395,-0.00295402905,-0.00013734279,-0.00153205861,0.03502814388776,0.027671642730589,0.051577508303224,0.006844655947773,0.006918013693782,0.007768681788637,0.001226970864222,0.000765719811409,0.002660239362769,4.68493150433898E-05,4.78589134673593E-05,6.03524167330995E-05
sitting_chair_1,-0.8953540022,3.49357544,-9.37499882,-0.00221699193,-0.00102388805,-3.672077E-05,0.022114170319927,0.022922023843699,0.035188482219782,0.001598834397465,0.001230099689877,0.001352574892161,0.000489036528939,0.000525419177091,0.001238229280932,2.55627143051689E-06,1.51314524703441E-06,1.82945883890331E-06
sitting_chair_1,-0.9010906976,3.488433839,-9.37771238,-0.00186455379,-0.00041505185,-0.0015320305,0.052537813075691,0.071471515600439,0.103793410834076,0.012120364793372,0.008156196643075,0.005370855303133,0.002760221802776,0.005108177542224,0.010773072132571,0.000146903242724,6.65235436805008E-05,2.88460866871905E-05
sitting_chair_1,-0.8969250492,3.471390379,-9.37787906,-0.0020354929,0.0003219527,-0.00268555742,0.06166345400599,0.078973414117577,0.115558839825015,0.014322695056156,0.010771030084175,0.009242668044589,0.003802381559949,0.006236800137386,0.013353845461704,0.000205139593672,0.000116015089074,8.54269125824677E-05
sitting_chair_1,-0.8952825923,3.460726316,-9.381235385,-0.00464169639,0.00023649599,-0.00215152205,0.045933268763306,0.044519675058641,0.064263963374156,0.008714819002863,0.007698360178586,0.008154321974385,0.002109865179282,0.001982001467327,0.004129856988555,7.59480702526632E-05,5.92647494392331E-05,6.6492966861944E-05
sitting_chair_1,-0.9072558586,3.466224979,-9.380045145,-0.00218500716,-0.00104523971,-0.00080571318,0.043430784009044,0.044132033299925,0.048196098226035,0.008232431547299,0.00477524498094,0.00378447842713,0.00188623299964,0.001947636363186,0.002322863884214,6.77729291809664E-05,2.2802964627989E-05,1.43222769654118E-05
sitting_chair_1,-0.9129449465,3.459583741,-9.383615695,-0.00014490894,-0.00141907868,0.00047602976,0.036816623620735,0.035988411442723,0.043713778687687,0.006584956920973,0.003971930964731,0.003014289139596,0.001355463774831,0.001295165758171,0.001910894447156,4.33616576510736E-05,1.5776235588589E-05,9.08593901708653E-06
sitting_chair_1,-0.8974487336,3.433518681,-9.407062375,-0.00127714182,-0.00011597424,0.00284726303,0.062128128741745,0.078617704923228,0.064135343825129,0.015734317318738,0.008727833955358,0.01119557844193,0.003859904380951,0.006180743527396,0.004113342327568,0.000247568741487,7.61750855522995E-05,0.000125340976649
sitting_chair_1,-0.8617431646,3.423973394,-9.410061655,-0.00311431278,0.00502166647,-0.0012435925,0.139540348171042,0.281819761792257,0.410049638357393,0.064232016725432,0.046628170628201,0.051663029318787,0.019471508767696,0.079422378136644,0.168140705917029,0.004125751972616,0.002174186296133,0.002669068598394
sitting_chair_1,-0.86607543887,3.443159174,-9.393184815,-0.00114898696,0.00613250636,-0.00125427255,0.223170115466803,0.324856441123627,0.452834102472455,0.072037737520817,0.060228064882274,0.060590643772089,0.049804900437466,0.105531707339508,0.205058724362034,0.005189435627118,0.003627419799463,0.003671226112716
sitting_chair_1,-0.90373291287,3.454632565,-9.382901665,-0.00012358282,0.00191345155,0.00274046085,0.191359759648969,0.181449140113922,0.206303495366388,0.037120081202852,0.040032566289477,0.034047801037008,0.036618557612911,0.032923790448082,0.042561132200389,0.001377900428506,0.001602606363721,0.001159252755456
sitting_chair_1,-0.9186102303,3.455132448,-9.380426055,-0.00374447035,9.76517000000001E-05,0.00019832446,0.059202860332285,0.040319118226874,0.054985222846867,0.008589836020063,0.008791769946669,0.006535112366017,0.003504978671524,0.001625631294593,0.00302337473152,7.37852828515758E-05,7.72952187951488E-05,4.27076936364668E-05
sitting_chair_1,-0.9169915775,3.447991333,-9.385996095,-0.00319973659,-0.00091706409,0.00012354591,0.029377826313669,0.023578117763522,0.036402762454332,0.002057656668564,0.003433355004486,0.003326290227868,0.000863056678916,0.000555927637271,0.001325161114307,4.23395096568463E-06,1.17879265868323E-05,1.10642066800071E-05
sitting_chair_1,-0.9097552507,3.443325803,-9.390376,-0.00337063272,-0.00077820712,-1.52973999999999E-05,0.039758279455912,0.033255568779101,0.056850140193852,0.006326277776152,0.007728425803765,0.006204024881966,0.001580720785294,0.001105932854822,0.003231938440061,4.00217905010344E-05,5.97285654043003E-05,3.84899247360525E-05
sitting_chair_1,-0.9167773444,3.44408752,-9.390161755,-0.00378718538,-0.00182495708,0.00177915486,0.065749737838584,0.043551233791643,0.088686832534813,0.011214859020937,0.012746409174277,0.010311468825524,0.004323028025843,0.001896709964774,0.007865354265058,0.000125773062859,0.000162470946838,0.00010632638934
sitting_chair_1,-0.9213952623,3.451347655,-9.38897156,-0.00370175536,-0.00203858251,0.00182186186,0.059800934133828,0.037562470181174,0.078783054392717,0.009511913814507,0.010491390178518,0.008494448708583,0.003576151723278,0.001410939166112,0.006206769659446,9.04765044146109E-05,0.000110069267878,7.2155658862755E-05
sitting_chair_1,-0.9163726778,3.451300045,-9.389828445,-0.00314633621,-0.00067140543,-0.00012213011,0.030366048804836,0.025745153653476,0.040975055298395,0.002187543984389,0.002736882284489,0.001786639120912,0.000922096920018,0.000662812936641,0.001678955156707,4.78534868363653E-06,7.49052463914863E-06,3.19207934837301E-06
sitting_chair_1,-0.9189910872,3.446896359,-9.38637687,-0.00303949519,-0.00034029248,-0.00010076659,0.030588584584574,0.028604500427014,0.036260455384064,0.00183898468691,0.001874742188184,0.002328657470948,0.000935661506888,0.000818217444679,0.00131482062466,3.38186467869123E-06,3.51465827215562E-06,5.42264561700322E-06
sitting_chair_1,-0.9162060552,3.449586176,-9.38592464,-0.00315699019,-0.00028688731,6.03204000000004E-06,0.03066344118816,0.026958980673032,0.039890402935214,0.002097402712751,0.002110827131541,0.002340011593259,0.0009402466255,0.000726786638929,0.001591244246334,4.3990981394547E-06,4.4555911792483E-06,5.47565425658614E-06
sitting_chair_1,-0.9149920669,3.451776119,-9.38718626,-0.00279504743,-0.00026309049,-6.90518E-05,0.025663890771722,0.018339846999019,0.035805119720148,0.001889012764733,0.001808090441151,0.001497668002536,0.000658635289543,0.000336349987947,0.001282006598174,3.56836922532263E-06,3.26919104338229E-06,2.24300944581935E-06
sitting_chair_1,-0.9171344001,3.450086062,-9.38897151,-0.00126447439,-0.00032262763,-9.487324E-05,0.023548874763154,0.018266820228866,0.029490811474066,0.001902517671533,0.001529138849148,0.001453044975985,0.000554549502611,0.000333676721274,0.000869707961399,3.61957349049658E-06,2.33826561997514E-06,2.11133970223427E-06
sitting_chair_1,-0.9160870357,3.446586911,-9.39047114,-5.316962E-05,-2.145912E-05,1.84745E-05,0.023958484411789,0.02098760037738,0.031916773310217,0.001410894275119,0.001496590007551,0.001404782897636,0.00057400897531,0.000440479369601,0.001018680418536,1.99062265556264E-06,2.23978165070184E-06,1.97341498949025E-06
sitting_chair_1,-0.9156347638,3.44734863,-9.387424335,-7.451191E-05,-1.07742E-05,2.919792E-05,0.022168039291292,0.022547932871505,0.03255250247142,0.001268811581053,0.001533970195217,0.001390214019344,0.00049142196602,0.000508409276778,0.001059665417152,1.60988282821408E-06,2.35306455981362E-06,1.93269501958082E-06
sitting_chair_1,-0.9146350085,3.450347903,-9.388352675,8.570012E-05,-0.00039527867,1.856873E-05,0.021349892672728,0.021577409011033,0.032697407193131,0.001401888346223,0.001626996381797,0.001275786631872,0.000455817917137,0.000465584579629,0.001069120437153,1.9652909352755E-06,2.64711722638079E-06,1.62763153006236E-06
sitting_chair_1,-0.912373659,3.44815796,-9.38509158,0.00036337646,-0.00068368849,-0.00012030908,0.020849496250017,0.020919318494771,0.033507957238265,0.001399714158452,0.001423462246645,0.001267068676996,0.000434701493879,0.000437617886286,0.001122783198281,1.95919972537072E-06,2.02624476762409E-06,1.60546303222341E-06
sitting_chair_1,-0.9127069111,3.44665832,-9.38366335,0.00028863595,-0.00053417707,-8.831358E-05,0.022132965706383,0.021195046632493,0.035626615954171,0.001281391303499,0.001301491628271,0.001421908708537,0.00048986817096,0.000449230001754,0.001269255764346,1.64196367268352E-06,1.69388045846059E-06,2.02182437541425E-06
sitting_chair_1,-0.9158251967,3.446348875,-9.389733225,0.00022455195,-0.00043804195,-0.00015242739,0.023719540781675,0.023089104544572,0.034855713271841,0.00119041604374,0.001388845158169,0.001475857720838,0.000562616614894,0.00053310674867,0.001214920747689,1.41709035719407E-06,1.92889087337043E-06,2.17815601215567E-06
sitting_chair_1,-0.9136590596,3.447824706,-9.386210335,0.000203187,-0.00029920044,1.848703E-05,0.02241969660336,0.022244331224676,0.030785483199776,0.001078686060147,0.001203810090058,0.001379957525386,0.000502642795787,0.000494810271633,0.000947745975844,1.16356361635632E-06,1.44915873292647E-06,1.90428277186952E-06
sitting_chair_1,-0.923847044,3.407644037,-9.389352455,0.03143481497,-0.01077738939,-0.00845165249,0.08525605048452,0.246015355223157,0.091065457968572,0.081471408557561,0.032354610835491,0.0225220418257,0.007268594144219,0.060523555005576,0.008292917635026,0.006637590412353,0.001046820842316,0.000507242367999
stand_up_chair_1,-0.5781933576,4.005807489,-8.877453602,-0.39789422437,0.18339535226,0.06141365491,1.03542723954109,1.49467710799526,1.81133894514991,0.627942706183794,0.278701362081994,0.166595279027013,1.07210956838368,2.23405965716508,3.28094877421679,0.394312042249426,0.077674449226359,0.027753986994088
stand_up_chair_1,1.272807009,6.970583484,-3.95003782419,-0.68816527281,0.29932861133,0.05283660907,1.80338394767925,2.72033756602028,4.88709434842591,0.556400963859802,0.355348020849483,0.207805535122692,3.2521936627472,7.40023647310115,23.8836911704165,0.309582032584117,0.126272215921645,0.043183140427628
stand_up_chair_1,2.697839973,9.297967495,0.94440978981,-0.25359190935,0.1063842732,-0.01603546116,0.284585281679628,0.420188702433063,1.22543874674132,0.420260176184441,0.309016246105242,0.122185736982396,0.080988782548673,0.176558545652381,1.50170012201494,0.176618615686577,0.095491040356976,0.014929354321931
standing,2.604315189,9.31267818,1.367473146,0.00834202689,0.00024565617,0.00054172793,0.064204860985013,0.042900697178032,0.103151995252221,0.014700908624376,0.025999915986947,0.013282209951207,0.004122264174105,0.001840469818361,0.010640334124514,0.000216116714382,0.000675995631328,0.000176417101188
standing,2.573536986,9.32719845,1.303607791,0.00293741597,-0.0002777203,-0.00045157592,0.030898701957343,0.032341466311209,0.051592928362864,0.007010423248725,0.011755856955624,0.003334356257568,0.000954729782649,0.001045970443159,0.002661830257056,4.91460341262629E-05,0.000138200172761,1.11179316523851E-05
standing,2.562920535,9.33210207,1.311320192,0.00288397203,0.00121764369,-0.00196831885,0.096178419266843,0.045570200639656,0.062112191559975,0.008076919441356,0.01610431867357,0.010420116747323,0.009250288332669,0.002076643186339,0.003857924340383,6.52366276621552E-05,0.00025934907994,0.000108578833028
standing,2.563658458,9.343385085,1.231934816,0.01058503452,-0.00370637127,-0.00169061968,0.098899401454362,0.045450167677184,0.116947769593673,0.011009783684624,0.018183423183708,0.010699723700759,0.009781091608031,0.002065717741884,0.013676780812935,0.000121215336782,0.000330636878678,0.000114484087273
standing,2.569085703,9.360690355,1.102466431,0.01319123075,-0.00328980653,0.0011185114,0.118412721235737,0.074610303932706,0.124654468970271,0.015007742945453,0.053034075443237,0.013847095100192,0.014021572550453,0.005566697452931,0.01553873663426,0.000225232348317,0.002812613158119,0.000191742042714
standing,2.556493536,9.380423605,0.9913745114,0.01249696073,-0.00288391754,-0.00088955837,0.139733175002847,0.081660931015972,0.140453774790951,0.016883939419011,0.054945914669126,0.015701032035929,0.019525360196376,0.006668507654395,0.019727262853027,0.000285067410305,0.003019053538827,0.000246522406993
standing,2.536212777,9.396800575,0.8911608892,0.00914309252,-0.00572510636,-0.00240625405,0.091354704264337,0.050482438525758,0.089066526235012,0.013910372096343,0.023072985154609,0.008445225694002,0.008345681991224,0.002548476599507,0.007932846095572,0.000193498451859,0.000532362643945,7.13218370226323E-05
standing,2.519788214,9.405346105,0.8408636464,0.002456695,-0.0036422879,-0.001861497,0.048768449000898,0.04161879217945,0.062513977309549,0.00979707797197,0.014363756216415,0.004069418989441,0.002378361617953,0.001732123862476,0.003907997359059,9.59827367888693E-05,0.000206317492645,1.65601709116224E-05
standing,2.516051025,9.40282291,0.8591210926,-0.00717771692,-0.00283052653,0.00074468021,0.049258573953518,0.04026358798607,0.073245928762655,0.011486600361202,0.009747403782941,0.004480008586905,0.002426407107934,0.001621156517512,0.005364966080304,0.000131941987858,9.50118805076964E-05,2.00704769387433E-05
standing,2.539830931,9.39118293,0.9580493185,-0.00684660006,-0.00041658481,0.00248570342,0.060714960474128,0.040190953520085,0.087739830589424,0.012411682266732,0.013866225250527,0.004213375906758,0.003686306425375,0.001615312744854,0.007698277871861,0.00015404985669,0.000192272202698,1.77525365316522E-05
standing,2.555469975,9.385636625,0.9830194089,0.00531923743,6.40768500000001E-05,5.042516E-05,0.056042244713186,0.037263855881856,0.06493449739405,0.008838685149922,0.014395435985225,0.003948061571132,0.003140733192493,0.001388594955184,0.004216488951818,7.81223551794472E-05,0.000207228577205,1.55871901694492E-05
standing,2.539545295,9.392682485,0.9140124486,0.00755158843,-0.00051270305,-0.0017440181,0.045551517122605,0.030322724210112,0.058039979408188,0.005220868632478,0.011279661319623,0.002740698656184,0.002074940712171,0.000919467603522,0.003368639209703,2.7257469277594E-05,0.000127230759485,7.51142912400682E-06
standing,2.531904302,9.398823835,0.8905181892,0.00032045199,2.13547700000001E-05,-5.64068599999999E-05,0.02816057105944,0.029213487650957,0.047716098360672,0.00714419419916,0.008868897945805,0.003517060057718,0.000793017762394,0.000853427860733,0.002276826042765,5.1039510755305E-05,7.86573507731069E-05,1.23697114495946E-05
standing,2.546519782,9.386612515,0.9500512683,-0.00704954695,0.00076903048,0.00197302923,0.03726968921541,0.034706770878976,0.074945131342681,0.004961382532434,0.008287335931477,0.002669030286155,0.001389029734213,0.001204559944846,0.005616772711972,2.46153166331441E-05,6.86799368411573E-05,7.12372266841077E-06
standing,2.562849128,9.36906923,1.0281750499,-0.00287320506,-0.0009719975,0.00113993301,0.046489282835266,0.037136512453979,0.063868525550643,0.008115944818488,0.011941113503052,0.00288722574266,0.002161253418537,0.001379120557245,0.004079188556013,6.58685602967467E-05,0.000142590191693,8.33607248907987E-06
standing,2.573251349,9.367879045,1.027698977,0.00302279599,-0.00383454021,-0.00026999343,0.05704618755783,0.05471308193281,0.081874512777515,0.008571376455976,0.020743487516954,0.003907579258268,0.003254267514883,0.002993521334586,0.006703435842556,7.34684943500554E-05,0.000430292274366,1.5269175659644E-05
standing,2.570966192,9.37459168,0.9935406484,0.00292667291,-0.00298004539,-0.00209649217,0.079280765306626,0.064959563546596,0.090513924103313,0.010355103136395,0.031714026392983,0.00485118842172,0.006285439747604,0.004219744896164,0.00819277045658,0.000107228160965,0.001005779470055,2.35340291030306E-05
standing,2.538974008,9.38501773,0.9669042955,0.00572513484,0.00445403688,-0.00255578339,0.080756684879362,0.055545313650182,0.081397381343995,0.009857126440489,0.030038279433032,0.005231330411256,0.006521642152705,0.003085281868497,0.00662553368966,9.71629416637857E-05,0.000902298231297,2.7366817871734E-05
standing,2.506077278,9.400942425,0.9177020271,0.00867310947,0.00730588733,-0.00158380824,0.057771753891775,0.046237529471777,0.076990742850746,0.009074274219624,0.018386162259716,0.004914989474669,0.003337575547732,0.002137909131653,0.00592757448471,8.23424526129305E-05,0.000338050962641,2.41571215361039E-05
standing,2.497436524,9.41053529,0.8639770523,0.00813906544,0.00033109723,0.00030674829,0.053896040848023,0.040544731043999,0.069611082937109,0.007999036884311,0.019070257291038,0.004343230346226,0.002904783219092,0.00164387521543,0.004845702867677,6.39845910765706E-05,0.000363674713146,1.88636498403787E-05
standing,2.505267947,9.41358216,0.7950415042,0.01331942434,0.0010681102,-0.00012050288,0.050959487897633,0.039270012648888,0.078120005208912,0.017724603843244,0.023034437288362,0.004997598987834,0.002596869406789,0.001542133893444,0.00610273521384,0.0003141615814,0.000530585301191,2.49759956432008E-05
standing,2.443068852,9.43840947,0.6658825682,0.0089828627,0.00814971564,-0.00570674493,0.142998519182808,0.08515492947201,0.180466217457639,0.045358303933656,0.057606622335769,0.02120556994904,0.020448576488476,0.007251362013383,0.032568055643468,0.002057375735738,0.003318522936936,0.000449676196864
standing,2.407101439,9.4483594,0.711204834,-0.01374663828,0.00059814483,-0.00150905434,0.156372902710364,0.084718999812243,0.221443159050756,0.047778724565449,0.063166786018708,0.024698841118426,0.024452484702065,0.007177308929187,0.049037072690379,0.002282806521101,0.003990042855933,0.000610032752593
standing,2.542663573,9.376043724,0.7361987317,0.13880157517,-0.08414612164,0.01822972476,0.437677084686331,0.516579105204057,1.08594290832871,0.337288386947271,0.197727064425549,0.065356898881619,0.191561230459526,0.266853971933425,1.17927200014941,0.113763455969492,0.039095992006345,0.004271524231422
sit_down_chair_1,2.0770629867,8.448793973,-2.4501898056,0.54281616367,-0.23193054593,-0.0621780118,1.01466565515987,1.48510775640102,3.65694648714071,0.438888945112557,0.240516500083457,0.170298497564463,1.02954639176102,2.20554504812248,13.3732576098108,0.192623506142013,0.057848186812396,0.029001578272714
sit_down_chair_1,0.3462237511,5.673733535,-7.44073298,0.46165008692,-0.18938751504,-0.04641265851,1.39146951634061,2.21450719290198,2.5229277062021,0.421937094910843,0.189823105105694,0.182019014701376,1.93618741490517,4.90404210741459,6.3651642107222,0.178030912061802,0.036032811231968,0.03313092171286
sit_down_chair_1,-0.8098986824,3.666914069,-9.353813405,0.06787872351,-0.04170990487,0.037231445,0.231078998354943,0.299384677173969,0.274278156927164,0.177731514125927,0.065619575646436,0.07740711498085,0.053397503480724,0.089631184926562,0.075228507367362,0.031588491113495,0.004305928708018,0.005991861449658
sit_down_chair_1,-0.8088037098,3.577745363,-9.345934415,-0.00136715649,-0.00450745259,0.00588227005,0.185003235636059,0.177740439338111,0.152460555725196,0.028475580205864,0.030142418783217,0.024329020124273,0.034226197195811,0.031591663776105,0.023244221052036,0.000810858668061,0.000908565410103,0.000591901220207
sitting_chair_1,-0.8168017559,3.579578251,-9.339983515,0.001612936,-0.00124971224,-0.00019528347,0.148720044622624,0.048088780136889,0.045281469332793,0.008596929679842,0.01761204760989,0.010427645495755,0.022117651672555,0.002312530775054,0.002050411464937,7.39071999201557E-05,0.000310184221013,0.000108735790585
sitting_chair_1,-0.8256805412,3.566938477,-9.35171876,0.00071573579,-0.00180516253,-0.00012043907,0.044258067895269,0.028646199835333,0.037646578941283,0.003396211679865,0.006021323128749,0.003683378461467,0.001958776573822,0.000820604765006,0.001417264905982,1.15342537744494E-05,3.62563322208129E-05,1.35672768904002E-05
sitting_chair_1,-0.8337261979,3.55882141,-9.36074035,0.00134593251,-0.00069433579,-0.00029128334,0.021919526754886,0.027120109525838,0.036995412445227,0.002714929794421,0.00264860884326,0.00176693160743,0.000480465653158,0.000735500340693,0.001368660541992,7.37084378863421E-06,7.01512880459588E-06,3.12204730533493E-06
