label,TYPE_ACCELEROMETER_X(mean),TYPE_ACCELEROMETER_Y(mean),TYPE_ACCELEROMETER_Z(mean),TYPE_GYROSCOPE_X(mean),TYPE_GYROSCOPE_Y(mean),TYPE_GYROSCOPE_Z(mean),TYPE_ACCELEROMETER_X(S.D),TYPE_ACCELEROMETER_Y(S.D),TYPE_ACCELEROMETER_Z(S.D),TYPE_GYROSCOPE_X(S.D),TYPE_GYROSCOPE_Y(S.D),TYPE_GYROSCOPE_Z(S.D),TYPE_ACCELEROMETER_X(Varience),TYPE_ACCELEROMETER_Y(Varience),TYPE_ACCELEROMETER_Z(Varience),TYPE_GYROSCOPE_X(Varience),TYPE_GYROSCOPE_Y(Varience),TYPE_GYROSCOPE_Z(Varience)
walking,0.28842834465,9.66528259,-0.52713562345,-0.05497589402,-0.07397308316,0.00818481576,1.37271531636941,2.27485278652505,2.20436291511736,0.884908170689427,0.610086850342945,0.614588347860956,1.88434733979517,5.17495520036077,4.85921586154471,0.783062470552909,0.372205964961375,0.37771883732646
walking,0.23606018255,9.363136208,-1.37945130485,-0.06200408822,0.00637054691,0.00186157417,1.92607756143446,3.72969613663788,2.91711239362551,1.17247969211516,0.903322104309157,0.880246079357566,3.70977477266131,13.9106332716515,8.50954471704353,1.37470862842245,0.815990824133524,0.774833160224367
walking,0.6432464577,9.6571953196,-1.13022644925,0.1146942179,0.01384735528,-0.06240692171,2.31871026947574,4.42746513932945,3.3063272452983,1.35992979800573,1.06323821466239,0.945253779095784,5.37641731377227,19.6024475599776,10.9317998530018,1.84940905550392,1.13047550111847,0.89350470689486
walking,0.8498388589,9.55747558553,-1.16017150592,0.13609924145,0.03919372895,-0.09885101315,2.39559269098592,4.65560354205153,3.3401382023142,1.38145423484937,1.08281746628592,0.934607879015169,5.73886434110515,21.6746443407628,11.1565232105587,1.90841580298326,1.17249366529386,0.873491887517234
walking,0.94410155626,9.57551882613,-1.0632903947,0.11113738731,0.14844055293,-0.13327636904,2.27691478822604,4.80195038881498,3.27016666360063,1.43424362389224,0.992253575675065,0.934861991640697,5.18434095284243,23.0587275366404,10.6939900077249,2.05705477267553,0.984567158439953,0.87396694341441
walking,0.93462768478,9.4452292029,-0.57471923053,-0.02476958964,0.14880371108,-0.04961090364,2.27870960377919,4.482960516387,2.96724514840139,1.46904720068225,1.00724366333561,0.98691042413343,5.19251745835551,20.0969349914848,8.80454377071158,2.15809967783234,1.01453979732975,0.973992185263226
walking,1.00611023008,9.6569096477,-0.34189514331,-0.04072722997,-0.07315063268,-0.0221496574,2.27203183171275,4.24682526085917,3.07475283015474,1.42073603287929,0.950493167084249,1.00250912884495,5.16212864431601,18.0355247962716,9.4541049665446,2.01849087512158,0.903437260673846,1.00502455341746
walking,1.03162780632,10.0968379174,-0.82520568459,-0.07590026562,-0.15688018413,0.04701080506,2.28998533729926,4.38254907428158,3.50030465176144,1.42226567316378,0.967654991060726,0.950322878630451,5.24403284504562,19.2067363884863,12.2521326551428,2.02283964506003,0.936356181724734,0.903113573648467
walking,0.83565185981,9.483422232,-1.09142638106,-0.2324005111,0.0383712799,0.09494781529,1.98674088553615,4.6868487745788,3.3954702917123,1.3175943180258,1.05196763840226,0.928476050191681,3.94713934626096,21.9665514357708,11.5292185019008,1.73605478689387,1.10663591224563,0.862067775779545
walking,0.80694458485,9.0895660543,-1.02625183484,-0.24458771082,0.05081482244,0.08000487939,2.02144094780056,4.90209336217905,3.55312791294053,1.26521384846315,1.04420681448245,1.00447647229547,4.08622350544484,24.0305193315199,12.6247179657171,1.60076608234292,1.09036787141159,1.00897298339515
walking,1.11077515145,9.1719982953,-1.04196228078,-0.09178314694,0.00790863103,0.04440460156,2.15509256692371,4.86188284627727,3.55232178160812,1.40597121445316,1.09428056120296,1.04038010293891,4.64442397200985,23.6379048109252,12.6189900400875,1.97675505587088,1.19744994662666,1.08239075859117
walking,1.13210327891,9.308250726,-1.05921996373,0.04655914113,0.03713226132,-0.08129119623,2.08143909419463,4.87212912095108,3.23066805702804,1.44999133025688,1.0590817780222,1.02837949834293,4.33238870284177,23.7376421712195,10.4372160947013,2.10247485782011,1.12165421253867,1.05756439261207
walking,0.98466309277,9.6869499234,-1.05674437765,0.10375671411,-0.00608368129,-0.12912139548,2.32339936155472,4.85447353236534,3.28159804646516,1.41509660403031,1.06434013159671,0.971077608630437,5.39818459327289,23.5659132764356,10.768885738564,2.00249839873811,1.13281991572731,0.942991721983409
walking,0.99682678846,9.6604087931,-1.09235472551,0.14012603554,-0.00134124946,-0.13441924755,2.25261605901028,4.78547572069692,3.47493505480476,1.40368705494426,1.04563254172236,0.921863427071581,5.07427910931101,22.9007778733797,12.0751736351109,1.97033734821808,1.09334741230875,0.849832178172161
walking,0.95626526603,9.4836364877,-1.09344970787,0.10874480743,0.08091430615,-0.12575683582,2.13225132182805,4.84858745964063,3.30188147599326,1.4160213463593,0.988888654014251,0.92196870834917,4.54649569943749,23.5088003537843,10.9024212815074,2.00511645334522,0.977900770038118,0.850026299175036
walking,1.01241821843,9.4812322997,-0.59999878329,-0.02268676888,0.0708526609,-0.03808593742,2.29141245950356,4.81850277187912,2.87919297978287,1.444688000663,1.00931473222777,0.952974476427329,5.25057105956817,23.2179689626068,8.28975221483093,2.08712341925965,1.01871622869201,0.908160352721942
walking,1.13933960606,9.5655271886,-0.28705138944,-0.01645965371,-0.06111297679,-0.01873168806,2.35007670084717,4.53884397259554,2.91508219090736,1.44649827988018,0.987812625351486,1.00884727055821,5.52286049986472,20.6011046075668,8.49770417974525,2.09235727369633,0.975773782803796,1.01777281531275
walking,1.1509320186,9.9653105148,-0.7360845911,-0.03691406243,-0.12188873499,0.01439056434,2.26848221421834,4.22254860959608,3.30155078360647,1.45250319231935,0.987458850242388,0.988774558805308,5.14601155622495,17.8299167604018,10.9002375767325,2.10976552369789,0.975074980922019,0.977675128140632
walking,0.99349426566,9.6441449062,-0.99494995162,-0.20865631085,0.01159362846,0.10720977884,1.95093653507752,4.36062672650123,3.34445308409014,1.37043580585871,0.98828890888562,0.898142551512837,3.80615336390029,19.0150654478769,11.18536643168,1.8780942979796,0.97671496742633,0.806660042837988
walking,0.87483276023,9.1760687695,-1.16878846013,-0.24627532675,0.03796539944,0.11173858976,1.9683538858722,4.63717753258533,3.37975853536166,1.33697579489505,1.03234249902672,0.871306268448332,3.8744170200282,21.5034154687141,11.42276775735,1.78750427613524,1.06573103529674,0.759174613437357
walking,1.13429321054,9.20727541819,-1.24203247411,-0.0917190515,-0.03218841285,0.01631317232,2.40029083346717,4.69108258024336,3.40436973047919,1.45818353384038,1.13585122204718,0.948944731208097,5.7613960852265,22.0062557746627,11.5897332618029,2.12629921836322,1.29015799862608,0.900496102887607
walking,1.16962386713,9.25028274931,-1.1416165181,0.06777191543,0.07763518915,-0.11380462712,2.44389179454415,4.91757140840463,3.86988373720542,1.45983224742466,1.17467663485917,0.987017486589843,5.97260710344022,24.1825085567587,14.976000139487,2.13111019062093,1.37986519648407,0.974203518834131
walking,1.01456649719,9.48517182112,-1.09693695093,0.13392028848,0.03409881281,-0.13985595809,2.28954866126089,5.32178248018255,4.09634492164948,1.42574574620524,1.15101292572015,0.953457415808402,5.24203307228153,28.321368766378,16.7800417171235,2.03275093282234,1.32483075517486,0.909081043760037
walking,1.10996582066,9.55473222497,-1.11396849731,0.15744018375,0.03790130565,-0.16177368657,2.25614051974986,5.09690741121167,3.50589216336611,1.3907626090725,1.09326949187821,0.920218804290979,5.09017004485715,25.9784651584644,12.2912798611519,1.93422063479415,1.19523818187163,0.84680264777072
walking,1.15233642621,9.51281983107,-0.85448423458,0.0667144764,0.09694671772,-0.1121490539,2.19051101287611,4.73355985674928,3.20405352497543,1.45491547714567,1.05209868832065,0.939953604974382,4.79833849753153,22.4065889174282,10.2659589909075,2.116779045638,1.10691164996604,0.883512779504337
walking,1.17499755618,9.2502053685,-0.3951202337,-0.0178054836,-0.03632202155,-0.01224823081,2.22975076722064,4.45828791092087,3.01692399526418,1.52139317221356,1.06995069696231,0.980075911620034,4.97178848392102,19.8763310966631,9.10183039320077,2.31463718445804,1.14479449393014,0.960548792537842
walking,1.21491637797,9.776100772,-0.66276917012,-0.0502975482,-0.17090454101,0.01954956242,2.31520839740342,4.11786054657066,3.07355305245024,1.50597876616917,1.01494108418312,0.983185932379099,5.36018992340733,16.9567754810032,9.44672836622618,2.26797204415242,1.0301054043628,0.966654577628158
walking,1.11620239681,10.096677275,-1.0653375196,-0.1791336059,-0.05926513531,0.06485900707,2.16602296740326,4.4056354378453,3.40541624685282,1.44831366050058,0.969899897333116,0.944263666197477,4.6916554953184,19.4096236111984,11.5968598143291,2.09761245919259,0.940705810846788,0.8916338713007
walking,0.87209534,9.3533766154,-1.07838195478,-0.2909332285,0.02400512607,0.10527648558,1.91108586399282,4.78453812694194,3.39928479659952,1.27092236324553,1.03012431980827,0.890492800870867,3.65224917955318,22.8918050881611,11.5551371283927,1.6152436533976,1.06115611426045,0.792977428402841
walking,0.88547302457,9.1611854622,-1.0652661123,-0.171411133,-0.03651428343,0.05532073826,1.98727628755248,4.5763573706778,3.33589476456619,1.35240241359166,1.07082140796459,0.927118689219274,3.94926704306839,20.943046784157,11.1281938802601,1.82899228828855,1.14665848775528,0.859549063899665
walking,1.10822815566,9.3037994686,-1.09452086915,0.0455978388,0.01640014818,-0.08270110985,2.28303357459446,4.62546980193301,3.35692289022582,1.47286744737122,1.07369074274005,0.938858573164221,5.21224230272556,21.3949708885942,11.268931290922,2.16933851752581,1.15281181104567,0.881455420403958
walking,1.04829040596,9.4927532897,-1.07043150729,0.11137236912,-0.00731200843,-0.11821594101,2.47628981321344,4.85494050200532,3.31153017872396,1.41244327058063,1.12966181440846,0.961038415513215,6.13201123902468,23.5704472780116,10.9662321245995,1.99499599260852,1.2761358149326,0.923594836092152
walking,1.06254882272,9.5704248101,-1.07881042313,0.15985411929,-0.01443633796,-0.13014679354,2.56277026278702,4.83342606717117,3.32124296090155,1.3685821184917,1.09683625841657,0.9508421210029,6.56779141982547,23.3620075468097,11.0306548053381,1.87301701505524,1.20304977777725,0.904100739073293
walking,1.05843078492,9.5344335941,-1.04996033159,0.15155486937,0.08811340612,-0.15639038606,2.38985891099405,4.74437619646551,3.34150119148683,1.40960956412616,1.01225186380476,0.92956529175782,5.71142561445765,22.5091054935885,11.1656302127079,1.98699912327593,1.02465383577621,0.8640916316408
walking,1.14476685228,9.43989117736,-0.61459045582,0.00096130547,0.06599273839,-0.0531890866,2.36971338549868,4.62572506899679,2.88913352042674,1.47388015682767,1.07015706787601,0.97964457839925,5.61554152941164,21.3973324139453,8.34709249885339,2.17232271669036,1.14523614992497,0.959703499987044
walking,1.25673950451,9.62123382046,-0.31763915704,-0.02506866423,-0.11152801588,-0.00298766912,2.42921668253272,4.2753283729876,2.96381057780062,1.43579423246043,1.02514785024788,0.988463650940973,5.90109369069527,18.2784326968728,8.78417314108286,2.06150507796663,1.05092811486784,0.977060389231558
walking,1.14424316611,10.0357218924,-0.73003844612,-0.0233703623,-0.0123748821,0.07886200062,2.27485997531182,3.99824383149862,3.40766429256547,1.40382379963487,1.00455079364439,0.937057754628201,5.17498790727569,15.9859537361168,11.6121759308258,1.97072126042127,1.00912229701158,0.878077235508846
walking,0.86159790368,9.6473584064,-0.96217223592,-0.1869628909,0.46073607903,0.0791397111,2.22417183692582,4.16979655608268,3.26732611516936,1.29059438404904,1.04922978418239,0.909995284795698,4.94694036017399,17.387203319119,10.6754199428677,1.66563386413891,1.10088314001541,0.828091418350404
walking,0.92858154485,9.2051569031,-0.97505004657,-0.17220153879,0.54717865113,-0.06055907946,2.15340031448647,4.51803021566095,3.35614854045343,1.31578600201008,1.0798505969223,0.941804251077808,4.63713291443045,20.4125970296253,11.2637330255877,1.73129280308567,1.16607731167345,0.886995247348231
walking,1.23562561337,9.353596814,-1.01037475438,0.02654266339,0.28819275044,-0.14539947308,2.46895561380581,4.93856148783465,3.61230897604648,1.47181181643512,1.19796284596013,0.932564663272045,6.09574182294321,24.3893895691235,13.048776138426,2.16623002299805,1.4351149803009,0.869676851183703
walking,1.14086303542,9.6282440104,-1.04355712489,0.10839233627,0.11783905063,-0.16608886628,2.77634017053418,4.99511856792089,3.68865581339159,1.43583263996782,1.21446591581203,0.946611671300265,7.70806474252176,24.9512095075881,13.6061817096676,2.06161536999695,1.47492746066915,0.896073656241882
walking,1.12681884415,9.6006554879,-1.24398437393,0.17176361126,0.02776489287,-0.16321563733,2.47316104879329,4.86277579663973,3.42088337743153,1.3518073072663,1.11366995283947,0.90140562912962,6.11652557326834,23.6465884483851,11.7024430819874,1.82738299597856,1.24026076385746,0.812532108226567
walking,1.08939941393,9.4390520509,-1.07097900671,0.11623229903,0.0649887051,-0.14005889945,2.32419654049854,4.69502837107656,3.25213578455235,1.42696510905998,1.03672765061759,0.9077824308501,5.40188955886537,22.0432914052138,10.576387161166,2.03622942247455,1.07480422155506,0.824068941760116
walking,1.13296020357,9.4654385001,-0.44848816197,0.01219787407,-0.03116302801,-0.0466949466,2.29046528559962,4.19551368570234,2.86691551016148,1.4812512265289,0.947399082963123,0.945962345078441,5.24623122453696,17.6023350869156,8.21920454240446,2.19410519609336,0.897565022399367,0.894844758306303
walking,1.26397582914,9.95696134375,-0.55674744116,-0.10146026829,-0.17650146702,0.05004425071,2.2582470072669,3.90694565522076,2.94587694256937,1.42934299353958,0.923925322874213,0.899901474549324,5.0996795458299,15.2642243528484,8.67819096076183,2.04302139318068,0.853638002248219,0.809822663896047
walking,0.8700482215,9.74764341815,-1.06793214211,-0.30648498363,-0.00371246504,0.11602172938,2.07528469193894,4.16473239749676,3.24728099588131,1.26383443901357,0.879765685955054,0.84989247558527,4.30680655259609,17.3449959427591,10.5448338662119,1.59727748923675,0.773987662183967,0.722317220056458
walking,0.83681823594,9.0596923771,-1.14905518572,-0.24416046141,0.03545531973,0.06883239591,1.98309671119786,4.38939197656821,3.2577918341321,1.33686924467306,0.902168845483619,0.904248051724309,3.93267256596375,19.2667619239613,10.6132076345378,1.78721937735271,0.813908625761246,0.817664539047208
walking,1.16466674266,9.30270444896,-1.05015077059,-0.00966644908,0.01506500015,-0.05584869624,2.24278812317737,4.567667230786,3.63552457762616,1.49198100726474,1.07242073359631,0.957395148241292,5.03009856546547,20.8635839311962,13.2170389545239,2.2260073260387,1.15008622984726,0.916605469875964
walking,1.10311034802,9.51403382237,-1.02227662015,0.0813690116,0.11345977811,-0.09389495826,2.39375507861767,4.68138687288092,3.67093907765317,1.40908555392907,1.03248178413068,0.959937620334946,5.73006337640787,21.9153830535818,13.4757937118411,1.9855220982916,1.06601863456168,0.921480234934319
walking,1.04191100608,9.58839661111,-1.02734679774,0.12313232395,0.01142272604,-0.14233398288,2.6253669893344,4.85840074411576,3.5465676525203,1.38970460528411,1.11780714483564,0.941903667607852,6.89255182868676,23.6040577904246,12.5781421139033,1.93127888994786,1.24949281304561,0.887182519053122
walking,1.03760253589,9.7499761947,-1.04091491174,0.12430725078,-0.05335846255,-0.15039825357,2.41376710394264,4.75006618987744,3.35739354449274,1.39426309157952,1.11430927229459,0.914442152255429,5.82627163207564,22.5631288082168,11.2720914126015,1.94396956854089,1.2416851543217,0.836204449821541
walking,1.09175597921,9.5665983815,-0.66914855646,-0.03006744547,-0.03653564511,-0.03122863725,2.22812189377059,4.44060903995098,2.90155365649521,1.44094841387526,1.01009295511618,0.962172263973028,4.96452717349986,19.7190086456943,8.41901362152071,2.07633233144963,1.02028777797534,0.925775465558983
walking,1.22350951969,9.5171402201,-0.34170471526,-0.03708496106,-0.091127017,-0.02432861216,2.54778695023301,4.12589542812757,2.98413989523141,1.48247302263088,1.0159737110561,0.989855833717892,6.4912183437776,17.023013083844,8.90509091431174,2.19772626282833,1.03220258155711,0.979814571545342
walking,1.21205993476,10.0829781884,-0.81934999284,-0.05247650322,-0.14497070348,0.03145904474,2.46351927846349,3.82428262673633,3.53163073467262,1.46024263490561,0.971600762363917,0.95608744318402,6.06892723536125,14.6251376091573,12.4724156460842,2.13230855279608,0.944008041426145,0.914103199014156
walking,1.00344421084,9.71336606354,-1.08140504266,-0.211177066,-0.00687408374,0.09971160657,2.0200071889669,4.44099325833905,3.59535811875852,1.37496148629608,0.952590409960086,0.917588270352687,4.08042904347796,19.7224211206129,12.9266000021228,1.89051908879753,0.907428489147925,0.841968233888835
walking,0.90794373131,9.11250687124,-1.12060974102,-0.24710845689,0.01803436135,0.08963928043,2.12041108747515,5.08025194073753,3.51423113360123,1.34138713087534,0.96741756502725,0.912433328238535,4.49614317988756,25.8089597813675,12.3498204603722,1.79931943487798,0.935896745123253,0.83253457848045
walking,1.11613098399,9.1207250708,-1.0954968322,-0.09654693498,-0.00060424875,0.02126922359,2.36419141515986,5.16085119587997,3.47559151169478,1.45016902823022,1.01748778314648,0.985757411462354,5.58940104751558,26.6343850660157,12.0797363561648,2.10299021043819,1.03528138885233,0.97171767425296
walking,1.28016234859,9.230722047,-0.98154847219,0.06625518254,0.0593383781,-0.09594574197,2.4568674091328,4.99915435692956,3.46813952709091,1.49353115459881,1.0396365961125,1.02437424536798,6.03619746605891,24.9915442844078,12.0279917793703,2.23063530975727,1.08084425197638,1.04934259457322
walking,1.22205749314,9.5327197637,-0.97714477789,0.09911040927,-0.01085815412,-0.11582336625,2.42973322753629,4.94578519479616,3.5388367914479,1.47668109157641,1.09301750939659,0.98901875818015,5.90360355699393,24.4607911930648,12.5233658365053,2.18058704621929,1.19468727584754,0.978158104032206
walking,1.1269616685,9.5365521534,-1.08690367826,0.172927854,0.00023956398,-0.14326324553,2.34545929368975,4.96380790388113,3.39206321714346,1.41255308414566,1.06376896169145,0.941262537367293,5.50117929835562,24.6393889066327,11.5060928690977,1.99530621552942,1.1316044038581,0.885975164251116
walking,0.94041198426,9.50360779146,-1.0960681029,0.1152389513,0.09505615121,-0.15002441411,2.29980286441826,4.75602139896166,3.25190232892867,1.40795517818005,0.993544293311389,0.945634797046426,5.28909321518644,22.6197395473812,10.5748687568917,1.98233778376401,0.987130262771628,0.894225169385036
walking,1.04900450462,9.32909084266,-0.50242736379,-0.02147980001,0.00672301933,-0.04378967388,2.1787406221406,4.48649151844475,2.98873333507055,1.46512282978089,1.01192380102624,0.991321442888156,4.7469106985656,20.1286061450767,8.93252694816192,2.14658490634518,1.02398977908339,0.982718203129856
walking,1.18530455671,9.6060708235,-0.32235229541,-0.03218231361,-0.11687927623,0.00153045645,2.30842731852292,4.26915323396535,2.90341411589544,1.48158548027686,0.987996066984965,1.01054098405853,5.32883668490291,18.2256693350768,8.4298135283809,2.19509553536721,0.976136228377759,1.02119308046197
walking,1.12843749431,10.1373577725,-0.74743896212,-0.11602935966,-0.1170074474,0.04647674688,2.33068173230669,4.26150448076717,3.53289480863227,1.46821585093956,1.00417410317585,0.994901603142557,5.43207733730813,18.1604204395986,12.4813457288609,2.15565778495017,1.00836562948903,0.98982919993563
walking,0.9587884417,9.5132720635,-0.9493420447,-0.25843048336,-0.04853058062,0.10215759338,2.03312321301501,4.56964456980966,3.68360732670322,1.38247307250117,0.977433417281989,0.941887659742014,4.13358999930048,20.8816514943909,13.5689629373417,1.91123179619083,0.955376085219548,0.887152363574288
walking,0.93586547054,8.9799737299,-1.12439453019,-0.2272308327,-0.09866791073,0.107893372,2.05681962532124,4.6596350235001,3.30157987870456,1.3501892126978,0.916005569764644,0.934562499564674,4.23050697110662,21.7121985522288,10.9004296954668,1.82301091008551,0.83906620383985,0.873407065592571
walking,1.1649761936,9.14690916099,-1.04584227819,-0.04281005348,-0.02512817593,-0.00451507538,2.33440671220647,4.79550305350358,3.3527249527744,1.40763042911968,1.01168388167703,0.982595235664718,5.44945469799464,22.9968495361621,11.2407646089561,1.98142342498365,1.0235042764451,0.965493397151004
walking,0.98573425108,9.47839366109,-0.86041136565,0.17458343792,0.33151549987,-0.1859237667,2.34525577859202,4.98201576089966,3.45448322197769,1.32943577906872,1.05836039211046,0.990001371852854,5.50022466701928,24.8204810418526,11.9334543309253,1.76739949066805,1.1201267195882,0.980102716270534
walking,0.81134825976,9.861121663,-0.88214415564,0.36692962717,0.88605957234,-0.38080139542,2.19775036154823,4.37053713996089,3.01624857657006,1.24814572177828,1.14780839910212,0.911619972566901,4.83010665168538,19.1015948917775,9.09775547566091,1.55786774279341,1.31746412104936,0.831050974382877
walking,1.01691711178,9.829171142,-0.40285644912,0.34497986007,1.37883453817,-0.39772034014,1.88033608475128,3.29311515955423,2.47237085380466,1.27552566788748,1.09314524182145,0.838102281958949,3.53566379161777,10.8446074540859,6.11261763874276,1.62696572943979,1.19496651971688,0.702415435024797
walking,1.05774048506,10.09410645,-0.33737244113,0.10949249824,0.74595489458,-0.21400451614,2.43755949785202,3.07570824434178,2.70593429902059,1.33840918894949,1.25947190826879,0.883054983344606,5.94169630556857,9.45998120431201,7.32208043061603,1.79133915706442,1.58626948771822,0.779786103609742
walking,0.80822998145,9.8626689287,-0.90625733174,-0.17297057626,0.00080566501,-0.01549530167,2.48496979577302,4.14405894962053,3.11764839172241,1.35175520859023,0.985463933660224,0.933513054949965,6.17507488590421,17.17322457793,9.71973149440935,1.82724214395081,0.971139164545082,0.871446623762017
walking,0.76721617671,9.20565080269,-1.24815002452,-0.2596908576,-0.04644774907,0.14349365292,2.16145344304857,4.75009505618994,3.30457938485346,1.33980508189447,1.01324351947116,0.899430654651882,4.67188098646651,22.5634030428401,10.9202449107985,1.79507765747024,1.02666242975031,0.808975502527513
walking,1.15773986592,9.19730166479,-1.27880918906,-0.11251526006,-0.02149657972,0.07002868777,2.36773257346479,4.90680292622915,3.52887728230465,1.47805204491113,1.04911573416364,0.991550207365353,5.60615753944621,24.0767149568509,12.4529748735658,2.18463784746599,1.10064382366972,0.983171813726275
walking,1.34771727955,9.3062036238,-1.0406768691,0.06075439494,0.02066192619,-0.0908721932,2.34083024684975,5.18298768719015,3.58493480004032,1.5226850476793,1.04726422661312,1.02401531283791,5.47948624456665,26.8633613655647,12.8517575205401,2.31856975442612,1.09676236034358,1.04860736092653
walking,1.15478819527,9.5364330836,-0.98797545276,0.1559875548,-0.01811065706,-0.1399200433,2.51082412063333,5.21534151330721,3.52628420530901,1.44256701071398,1.03299409893495,0.999737732095272,6.30423776475412,27.1997871004255,12.4346802966118,2.08099958040026,1.06707680843443,0.999475532974999
walking,1.18877989843,9.4960381562,-1.1613616929,0.1574508693,0.02977294785,-0.16584320097,2.50853713703616,4.96720849962081,3.37576821844641,1.38487559797327,0.99249074202646,0.955000762732136,6.29275856788955,24.6731602787052,11.3958110646729,1.91788042186181,0.985037873008232,0.91202645681896
walking,1.17963927997,9.42422239741,-1.1039709484,0.0336883509,0.10586547841,-0.11537475385,2.45369874639885,4.77902152735854,3.31195309332354,1.42552965818501,1.02008741708854,0.935124514353555,6.02063753807929,22.8390467589563,10.9690332923754,2.03213480636508,1.04057833850237,0.874457857344972
walking,1.20787048445,9.36986669801,-0.5182806325,-0.0552749657,0.04228057886,0.0036346453,2.43351945763013,4.65995169600908,2.91541006691931,1.45810302481231,1.10024095495064,1.00876377888495,5.92201695066447,21.7151498091379,8.49961585829448,2.1260644309668,1.2105301589507,1.01760436159025
walking,1.2774249305,9.7922635392,-0.41511535328,-0.0228469884,-0.1468185448,0.008056639,2.39237171182593,4.15454715532856,2.9149534274238,1.44328482763885,0.993502368448531,1.0169790164435,5.72344240754492,17.2602620658486,8.49695348404976,2.0830710936925,0.98704695611284,1.03424631988638
walking,0.96876815678,9.9996533598,-0.95697112948,-0.1660598792,-0.06830139356,0.0750381469,2.87359480792399,4.26061152757775,3.50825922954282,1.40164761859114,0.868636780246251,0.959656297494039,8.25754712012771,18.1528105889284,12.3078828216724,1.96461604670221,0.754529855996573,0.920940209319968
walking,0.66684188242,9.3380292073,-1.1096005314,-0.2692718523,0.05446777602,0.13342132685,2.63051058353763,4.68346737154604,3.48538912017277,1.3009302813002,0.975096043103141,0.894566937171069,6.91958593010346,21.9348666203363,12.1479373190187,1.69241959680383,0.950812293275402,0.800250005079628
walking,0.87083374335,9.1454571558,-0.91530273934,-0.12179718182,-0.00975799174,0.07301941125,1.96233841295098,4.69412998760546,3.24477395850339,1.39201500849896,1.03268649499571,0.93596200749699,3.85077204694296,22.0348563405368,10.5285580417818,1.93770578388635,1.06644139694651,0.876024879477796
walking,1.2113458255,9.2803051856,-0.94043944791,0.01574401676,0.00751342664,-0.02933807572,2.18024622707556,4.81759142114556,3.27089337623593,1.47714292228009,0.99999026438862,0.963744371131944,4.75347361067721,23.2091871010953,10.6987434787041,2.18195121284218,0.999980528872022,0.928803212888506
walking,1.07900314752,9.45639906216,-0.83085905051,0.07301635628,0.04347686466,-0.10464020415,2.70735132663037,4.98887388034457,3.89684022917279,1.43847964953661,1.01319117712058,0.979277529710958,7.32975120580723,24.8888625939843,15.1853637716994,2.06922370213096,1.02655636139499,0.958984480196795
walking,1.0008793704,9.48510633186,-0.89772368256,0.1561904889,0.03211211879,-0.15329284961,2.73195427898358,4.9654144397391,3.82450772240563,1.34254423940892,0.975517966188374,0.959932128057517,7.46357418245669,24.6553405583695,14.6268593187403,1.80242503477006,0.951635302356302,0.921469690477033
walking,1.02136840511,9.551143808,-0.83529846002,0.0901489241,0.05401916209,-0.1223815925,2.20909005778199,4.63565467174593,3.10977981272769,1.35307554250621,0.959941688040976,0.945756492729131,4.88007888339122,21.4892942356798,9.67073048364865,1.83081342372848,0.921488044438959,0.894455343539307
walking,1.09301757543,9.550917658,-0.35848632147,-0.015466313,-0.0174697885,-0.02311096166,2.18857932589659,4.19770526813176,2.69872876604879,1.4301139747401,0.91229462770265,0.965349206758386,4.78987946574196,17.6207295181011,7.28313695269921,2.04522598074693,0.832281487735117,0.931899090989046
walking,1.17504517411,9.768055097,-0.62346922883,-0.05942993104,-0.14490661575,0.01447601291,2.33181835992626,4.07883715628847,2.92168129538998,1.42570875695252,0.856398527346524,0.975366722965009,5.43737686368917,16.6369125475194,8.53622159183167,2.03264545965109,0.733418437641295,0.9513402442675
walking,1.01598877487,9.72793394748,-0.97952513522,-0.19340361897,-0.03470916757,0.06929168655,2.06180449400814,4.48972295296871,3.26823258420835,1.34565320817529,0.900331717436843,0.955673320974936,4.25103777151216,20.1576121944141,10.6813442244812,1.81078255667245,0.810597201422776,0.913311496423263
walking,0.88278320176,9.25445432708,-1.04669921881,-0.25495910433,0.01939087058,0.13501281868,1.97618012591006,4.69782575525012,3.15640270873448,1.24078175361927,0.941635794655221,0.905813268335106,3.9052878900419,22.0695668266913,9.96287805970635,1.53953936011451,0.886677969775969,0.820497677091927
walking,0.93772217045,9.1560735782,-1.12882202401,-0.1250228847,0.0125869775,0.05305633646,2.17848689495552,4.58881268436293,3.19970357529314,1.3058410915394,1.02061254973796,0.966292198571506,4.74580515149295,21.0572018521701,10.2381029697437,1.7052209563528,1.04164997668261,0.933720613020155
walking,1.11996338052,9.4197710996,-1.01175537186,0.05263672177,0.006552125,-0.12264861897,2.21616342416463,4.6683498120082,3.3455536187201,1.37781695200011,1.03477738518924,0.987766386448383,4.9113803226051,21.793489967277,11.1927290157312,1.89837955321887,1.07076423689907,0.975682434197296
walking,1.11096558014,9.6775891253,-1.14538940876,0.17685851943,-0.01055907884,-0.19826049943,2.22479143770498,4.77404502983788,3.22612919097033,1.35834845635299,1.02118326466144,0.93036117318305,4.94969694128541,22.7915059469198,10.4079095568309,1.84511052887656,1.0428152600246,0.865571912566541
walking,0.99794555734,9.608129885,-1.08326172497,0.13138885266,0.06936798243,-0.16625976418,2.07886052853249,4.61104946368823,3.02336362374259,1.35053241973876,0.978231053371041,0.927475367900347,4.3216610970904,21.2617771565795,9.14072760136991,1.82393781676543,0.956935993779416,0.860210558061884
walking,1.17718750717,9.4523941254,-0.47295837946,-0.0082244905,0.00238647467,-0.06855926107,2.18248839784255,4.17824944831862,2.61042487393386,1.36078017677523,0.963522162516325,0.980165080828007,4.76325560671733,17.4577684523748,6.81431802245262,1.85172268950443,0.928374957660136,0.960723585674575
walking,1.22048645637,9.8407516697,-0.54496460089,-0.0692565923,-0.1373550394,-0.03049163567,2.3602783226194,3.92542885580835,2.73546780089964,1.36950060656651,0.917978259045513,1.04070603218409,5.57091376022705,15.4089917020129,7.48278408975869,1.87553191138604,0.842684084080232,1.08306904542434
walking,0.9251300019,9.849737516,-0.99133179902,-0.2239730848,-0.0485519371,0.08543090944,2.07640475571604,4.04883973106492,3.15810899766091,1.32492376264138,0.828563409901573,0.992261643674641,4.31145670956018,16.3931031678499,9.97365244110682,1.75542297681179,0.686517324227721,0.984583169507901
walking,0.81270507528,9.2455696134,-1.13510621353,-0.2834136979,-0.00374450319,0.16618041808,2.08762108888923,4.45658706702145,3.34826182531314,1.25142995644254,0.963633110836514,0.873134870517342,4.35816181077505,19.8611682859429,11.2108572508493,1.56607693588178,0.928588772300458,0.762364502113335
walking,1.10037292125,9.2415230309,-1.16438476322,-0.0976791325,-0.05177764929,-0.01489715666,2.3759265730036,4.52159265273482,3.40754506833729,1.35357291276746,1.04298191533024,0.89558803352322,5.64502708030463,20.4448001172655,11.6113633927498,1.83215963017778,1.08781127570593,0.802077925789988
walking,1.35676268899,9.5149979095,-1.21632446527,0.04043884881,-0.44004821646,-0.07914428545,2.56383133572242,4.03221966046312,3.33309329314853,1.42567759449302,1.12349295756132,0.843110250980023,6.5732311180322,16.2587953902253,11.1095109008317,2.03255660343941,1.26223642568989,0.710834895307597
walking,1.18637572925,9.6576297097,-1.2754766793,0.16616669111,-0.67181854006,-0.08323516815,2.45249129323648,4.30038264527627,3.30734035244039,1.34211180204051,1.05248866943086,0.805976118871469,6.01471354340076,18.4932908957933,10.9385002068805,1.80126408917643,1.10773239928034,0.649597504191116
walking,1.01741699211,9.5398132392,-1.02970335535,0.1460647579,-0.18134002712,-0.1279037483,2.11022411521755,4.63922256449018,3.16175144654402,1.33350212540591,1.00392354045905,0.916514586653485,4.4530458164457,21.5223860028749,9.99667220972318,1.77822791846208,1.00786247508783,0.839998987548609
walking,1.1409344429,9.269438801,-0.37805297861,0.01280669758,0.03598937858,-0.04315948455,2.21830134971006,4.23386916322521,2.72307833620584,1.40196367174759,0.941946756367367,0.973608776034683,4.92086087812549,17.9256480913093,7.41515562511358,1.96550213689999,0.887263691831004,0.947914048771754
walking,1.26695129799,9.8424417425,-0.51090148764,-0.04575805122,-0.16183624252,0.01671905575,2.38194655053262,3.85066786877171,2.84067748293551,1.4638347830716,0.903956520341168,0.957377916757475,5.67366936959427,14.8276430355908,8.06944856205685,2.14281227213029,0.817137390667313,0.916572475494882
walking,1.17987733222,9.94088197134,-0.99925842567,-0.1348388632,-0.1287887559,0.05833282398,2.28677311677017,4.18577519571629,3.31273153869218,1.43756480218186,0.853390680565175,0.959267313870988,5.22933128758277,17.5207139890738,10.9741902474458,2.06659256047218,0.728275653675493,0.92019377946126
walking,0.89811280001,9.33755309434,-0.99161743096,-0.229644775,0.02373810006,0.12102050345,1.9147997037427,4.53420400119488,3.28827893068028,1.27244876681207,0.833634559270513,0.90837154206337,3.66645790545313,20.5590059244517,10.8127783259558,1.61912586416156,0.694946578410142,0.825138858430585
walking,0.98183044277,9.2768536391,-1.07866760347,-0.16809997375,0.0632904101,0.07730254727,2.13242084174543,4.48486201618332,3.25945848651779,1.33594393203565,0.899210483403759,0.954149082451423,4.54721864631027,20.1139873042039,10.6240696253329,1.78474618954287,0.808579493463223,0.910400471542893
walking,1.27390197201,9.3312927216,-1.03117921142,0.06201476845,0.05615539953,-0.0615203872,2.31667219030346,4.7520821755513,3.38400639115554,1.48006392942976,0.971716003404932,0.969241193505069,5.36697003732542,22.5822850031924,11.4514992553816,2.19058923519906,0.944231991273254,0.939428491187131
walking,1.12491454772,9.6663061793,-1.00259093902,0.161071779,-0.04855194157,-0.1210250882,2.18150626111562,4.79454935186399,3.4021721062788,1.44503451080996,1.02719915926883,0.951224679214078,4.75896956728665,22.9877034874594,11.5747750407415,2.08812473743179,1.05513811280259,0.904828390345926
walking,1.1372924879,9.6242450022,-1.13177367108,0.19744110485,-0.00125579994,-0.17150421254,2.27219130891208,4.85818617607516,3.287685771189,1.34659198616265,1.05154861816253,0.932784907967588,5.16285334429561,23.6019729214078,10.8088777300786,1.81330997719748,1.10575449635953,0.870087684532102
walking,1.13376953755,9.5486205959,-0.85115173362,0.11566619762,0.06990203904,-0.13546600144,2.17326906580603,4.80025130319492,3.12736700524465,1.39043759691978,0.944711914633745,0.941147549591266,4.72309843238944,23.0424125738246,9.78042438549288,1.93331671092804,0.892480601650957,0.885758710101645
walking,1.17071289177,9.5159976394,-0.3034997637,0.02346648727,-0.04298705951,-0.03550109812,1.98677518704949,4.10610815861755,2.73265051337369,1.45761021715885,0.878890832055046,0.990356605728324,3.94727564387553,16.8601242102656,7.46737882824148,2.12462754516588,0.772449094670412,0.980806206509728
walking,1.29563477372,9.9374423473,-0.58159851931,-0.0416564965,-0.08279571603,0.00568542446,2.26375834413143,4.02804628710109,3.07479872024177,1.42167773493218,0.908707964191736,0.98087637382565,5.12460184062466,16.2251568910288,9.45438717000041,2.0211675820019,0.82575016418549,0.962118460729355
walking,1.01303711561,9.7781538742,-0.98435730992,-0.19229278292,-0.01703186173,0.08182067838,2.0929543061237,4.59654373744345,3.37444267865344,1.36343431203845,0.903041760885032,0.964989229182833,4.38045772752176,21.1282143302306,11.3868633915178,1.85895312324375,0.815484421902339,0.931204212438878
walking,0.93441344996,9.1252418601,-1.02291932669,-0.22507323522,-0.00670318678,0.10723113918,1.91404876140085,4.77708650039263,3.33654502534242,1.32605305417636,0.962458188886318,0.924612894546948,3.66358266102013,22.8205554322335,11.1325327061373,1.75841670249045,0.926325765354331,0.854909004762486
walking,1.21608275524,9.2195343025,-1.0235382268,-0.04966735672,0.01097411972,0.00913543978,2.11193050785993,4.64906683937461,3.30583674918228,1.3678791357957,1.03403811086856,0.932175599700369,4.46025047002951,21.6138224769726,10.9285566122441,1.8710933301452,1.06923481472863,0.868951348676742
walking,1.26202392304,9.43126832685,-0.93196534659,0.11602935574,0.03571166913,-0.10877380134,2.25551688371683,4.65575985156868,3.21390607650055,1.38426116155292,1.02374364464779,0.960325148215395,5.08735641273168,21.6760997954788,10.3291922685672,1.91617896338385,1.04805104995673,0.92222439029492
walking,1.11222716989,9.55866573815,-0.97097962095,0.12037658846,-0.02260742186,-0.11690216261,2.37771486598982,4.67278284098273,3.3422673639873,1.39067172946067,1.0121436936745,0.980720038696793,5.65352798394899,21.8348994789826,11.1707511323746,1.93396785912113,1.02443485664506,0.961811794301439
walking,1.15466918079,9.47369244001,-1.16355163889,0.1780654899,-0.01711731168,-0.14690551825,2.47446348140503,4.60685321166846,3.2365021953984,1.32582702252055,0.99607519606492,0.931065768350778,6.12296952080708,21.22309651386,10.4749464608187,1.7578172936457,0.992165796215768,0.866883464994624
walking,1.10939452339,9.58618882481,-0.87876404455,0.1161468492,0.12347869593,-0.13356475749,2.57772426760191,4.59513355158129,3.10039038726173,1.33193492278,1.06050985214788,0.952024416363194,6.64466239978379,21.1152523568681,9.61242055342497,1.77405063852097,1.12468114650272,0.90635048935168
walking,1.17804442379,9.5171639925,-0.2734356717,-0.0211807214,0.06260680963,-0.05930938781,2.36342176230639,4.18212527663693,2.84966075428744,1.40686440415089,1.0473896489763,1.01737713636343,5.58576242654346,17.4901718294855,8.12056641452604,1.97926745166684,1.0970250767827,1.03505623759505
walking,1.32062865837,9.7941201372,-0.50061828896,-0.0521774251,-0.15832214429,-0.00084075855,2.27090397130353,3.85999501732183,3.0319625884748,1.42015536385146,0.95559627281001,0.97326086276477,5.15700484688213,14.8995615337494,9.1927971379108,2.01684125747606,0.913164236608383,0.947236706989625
walking,1.30391845605,10.0888457952,-0.98057250874,-0.13539428715,-0.12652435335,0.07061615296,2.36019519526712,4.2087787557724,3.45034622633129,1.37936908486003,0.935923973553075,0.946670981434752,5.57052135976199,17.7138186150411,11.9048890815586,1.9026590722676,0.875953684271376,0.896185947090637
walking,1.11943969378,9.3965624852,-0.97255064634,-0.17101593311,0.02377014127,0.0472457902,1.99676598125174,4.50894774351749,3.38773652199672,1.33579673536417,0.919368900002469,0.929197204406339,3.98707438388424,20.3306097537715,11.4767587424704,1.78435291820957,0.845239174291751,0.863407444676556
walking,0.96661987169,9.1390301456,-1.10523253954,-0.1468444841,0.05326080357,0.04380645933,1.87248274758153,4.39284091346608,3.31201993407978,1.3328190954165,0.915653029403554,0.909989665024284,3.50619163999048,19.2970512910215,10.9694760437418,1.77640674110685,0.838420470255905,0.828081190451008
walking,1.19254088734,9.2424334778,-1.24391297448,-0.05026550194,0.0324752836,0.03550720204,2.32575275861865,4.42168505743749,3.3215905592815,1.40675186569505,0.952042497029533,0.964718774125423,5.40912589422228,19.551298747166,11.032963843508,1.97895081163649,0.906384916150228,0.930682313150059
walking,1.2565490581,9.1066987628,-0.99780641162,-0.00211486835,0.05162658981,-0.04219818166,2.47992989884234,4.89436939460882,3.2681989750302,1.42214375312484,1.03706950357618,0.982058224680915,6.15005230317218,23.9548517708835,10.6811245403885,2.02249285455202,1.07551315524775,0.964438356663432
walking,1.13079406463,9.3723719636,-0.83639343489,0.07980956845,0.10467987199,-0.11045074525,2.42033938041745,5.01081366358917,3.1974424080789,1.36705244348713,1.00712711898936,0.992316506112013,5.85804271639954,25.1082535712119,10.2236379529814,1.86883238324412,1.0143050338038,0.984692048302353
walking,1.17742554314,9.5709961097,-1.04431885154,0.1911712638,0.06477509633,-0.19517364703,2.31536142786903,4.74514209169129,3.19027269884682,1.32563332383003,0.964222826713609,0.965818318338383,5.36089854166373,22.5163734703404,10.1778398930074,1.75730370924865,0.929725659555582,0.932805024037982
walking,1.09268432612,9.5891107492,-1.02072938504,0.13096160646,0.02123871999,-0.14910583444,2.26284717075729,4.57839009788248,3.28378335364195,1.33765930350841,0.9785596573265,0.929315075340003,5.12047731820427,20.9616558883883,10.783233113656,1.7893324122626,0.957579002946958,0.863626509254195
walking,1.10613342296,9.4784770621,-0.44791687687,0.01855315821,0.01786346684,-0.00308380214,2.41416504309027,4.46748487784629,2.95333743053136,1.43861686223888,1.06484949266879,0.963949133952407,5.82819285527904,19.9584211337853,8.72220197857757,2.06961847631803,1.13390444203697,0.929197932847595
walking,1.28927918313,9.5892654746,-0.28345702906,-0.00316161885,-0.0941070556,-0.00458984742,2.4532593110137,4.16216018512269,2.86500756637183,1.45481318288149,1.03791570424987,1.0091887982195,6.01848124707544,17.3235774066205,8.20826835536784,2.11648139708576,1.0772690091285,1.01846203045171
walking,1.30925049252,9.9933512668,-0.76610107233,-0.0895080505,-0.1482391338,0.02715453791,2.32376113010815,4.03906740197855,3.27280679413663,1.4191973256448,0.950722863430311,0.984396220000899,5.39986578980152,16.3140654777258,10.7112643117469,2.01412104911734,0.90387396304913,0.969035917952058
walking,1.04376769718,9.6013220055,-1.02651367698,-0.17096251847,-0.0137313809,0.07431183027,2.06472083481946,4.48677763266401,3.26274415306988,1.36075048395568,0.88566656929033,0.940136064957985,4.26307212573758,20.1311735249741,10.6454994083917,1.85164187958561,0.784405271958503,0.883855820634685
walking,0.88654419123,9.1950164723,-1.11413513836,-0.11659545703,0.0238235483,0.02010498228,1.9993795926651,4.64884652774087,3.20082241132932,1.25508749658506,0.882638599373097,0.924787491178338,3.99751875556565,21.6117740384883,10.245264108868,1.57524462408416,0.779050897103303,0.855231903839925
walking,1.18199584749,9.2162255782,-1.16902648277,-0.07736358326,-0.0477294911,-0.0046966576,2.29197226387685,4.82612565223062,3.20457102691438,1.33865070613789,0.996765343624226,0.959793541126382,5.25313685838079,23.2914888111184,10.2692754665391,1.79198571304347,0.99354115025032,0.92120364158792
walking,1.24469482525,9.3422662096,-1.05548278578,0.09117432574,0.02575683863,-0.12333221446,2.25028832532933,4.69525865927754,3.18241330885753,1.40858448112893,1.00782239359358,0.987246607263548,5.06379754711347,22.0454538775207,10.1277544683936,1.98411024047725,1.0157059770287,0.974655863553387
walking,1.09942077789,9.573971521,-1.07997681322,0.25198975021,0.03405609212,-0.22406616148,1.98622961354142,4.36623240101996,2.72818056193246,1.23976870972721,0.899954517263955,0.857807885822857,3.94510807770889,19.0639853797165,7.44296917850612,1.53702645361866,0.809918133143799,0.73583436897988
walking,0.9649774128,9.820018631,-0.44541748086,0.16874084327,0.56236724542,-0.11851501749,1.51370279593301,3.21266668938473,1.97011698847914,1.07083254441678,1.20555404506045,0.710804708154076,2.29129615441541,10.3212272570822,3.88136094829411,1.14668233818211,1.45336055556161,0.505243333134001
walking,1.43383911377,9.838573659,0.36609863247,0.12122039764,1.55524445083,-0.00142822494,1.30427663510651,1.15117887281854,1.12293056620982,0.722484747367487,1.20072969059508,0.474705437164948,1.70113754088475,1.32521279722377,1.26097305652831,0.521984210178661,1.44175178987655,0.225345252073965
walking,1.96761352966,9.628363069,0.204757081,0.09141998249,1.00545350116,-0.00499572748,1.0055377335043,0.597167769121955,0.835793501729905,0.246036453085234,1.20051214856323,0.173267054391722,1.01110613350096,0.356609344478093,0.698550777533937,0.060533936246763,1.4412294188479,0.030021472137584
walking,1.817388307,9.629791285,0.0753363048,-0.00051269067,0.01820526395,0.01073761027,0.50768109924401,0.277047091323395,0.40645562797125,0.151783986771834,0.224772461342807,0.081595413710604,0.257740098529606,0.076755090810754,0.165206177509503,0.023038378640352,0.050522659378104,0.006657811538605
standing,1.901701042,9.6134143,0.18371460033,-0.00334319204,-0.0050155601,0.03440704362,0.286887503126487,0.091777418937659,0.125902976434372,0.025623460559282,0.095087830152933,0.038448089234036,0.08230443945015,0.008423094626859,0.015851559475034,0.000656561731033,0.009041695443193,0.001478255565748
standing,2.096129757,9.57042479,0.23158386206,-0.0118667516,0.00096588743,0.01335448547,0.078807362581105,0.038151509018647,0.083779771737202,0.011054721838735,0.027706225607859,0.02877355477164,0.00621060039699,0.0014555376404,0.007019050152338,0.000122206874932,0.000767634937434,0.000827917454197
standing,2.033883059,9.580422365,0.2571252431,-0.00609891307,-0.01964874028,-0.00247500008,0.067507459541589,0.030863283100911,0.063057799133343,0.007799979194152,0.034974005342559,0.006156133182933,0.004557257093759,0.000952542243767,0.003976286031541,6.08396754292005E-05,0.001223181049701,3.78979757660092E-05
standing,1.982109986,9.59577574,0.2437475587,-0.00463559622,-0.00920257214,0.00141292973,0.044672685416191,0.025821832514394,0.058557006010829,0.005293609241269,0.041644806664791,0.006113624107381,0.001995648822294,0.000666767034401,0.003428922952952,2.80222987992464E-05,0.001734289922148,3.73763997263477E-05
standing,1.975992431,9.594918815,0.257529908,-0.00749816266,0.00767366567,0.00648649477,0.04124824588191,0.025853019523708,0.041497919597992,0.003849002068546,0.023379870400152,0.004529250312137,0.001701417788334,0.000668378618493,0.001722077330961,1.48148169236707E-05,0.000546618339928,2.05141083899886E-05
standing,2.00898437,9.58561156,0.2742639162,-0.0049239741,0.00216219968,0.00965881352,0.051505719129879,0.030498085520166,0.040222863417464,0.004377206739757,0.010184407000737,0.003148108779657,0.002652839103086,0.000930133220395,0.0016178787415,1.91599388425706E-05,0.000103722145957,9.91058888855375E-06
standing,2.066803583,9.57378113,0.2708599859,-0.00260615007,-0.00010220693,0.011164856,0.047666550207023,0.035105156644192,0.045494389749987,0.004067774116135,0.010688805445268,0.004011760195418,0.002272100008639,0.001232372023013,0.002069739498724,1.65467862598983E-05,0.000114250561847,1.60942198655402E-05
standing,2.12686035,9.56166505,0.2348449713,-0.00132443883,0.00012209614,0.00941313898,0.048188452902588,0.030074675130239,0.049329543368347,0.005468982273937,0.012987530068951,0.00512196389117,0.002322126993145,0.000904486084189,0.00243340384893,2.99097671126417E-05,0.000168675937292,2.62345141024503E-05
standing,2.138547973,9.56126038,0.2171112063,-0.00430448657,-0.00294338478,0.00368798381,0.038317382853907,0.025212850262599,0.039237669979307,0.007363686387504,0.012120780022418,0.004334896975397,0.001468221828773,0.000635687818364,0.001539594745405,5.42238772135126E-05,0.000146913308352,1.87913317873089E-05
standing,2.107745963,9.570401015,0.2167779547,-0.00489195032,-0.00272976306,0.00304711181,0.033592765693156,0.024536559444243,0.038375501675173,0.006738935709517,0.009653905143641,0.003569804582259,0.001128473906915,0.000602042749361,0.001472679128821,4.54132544970032E-05,9.31978845224173E-05,1.27435047555139E-05
standing,2.102461538,9.57221009,0.18309570334,-0.00133511674,0.00152132829,0.00492704015,0.030442066483009,0.022551253412542,0.045884368390862,0.005024553309939,0.007764713327884,0.00270582632583,0.000926719411756,0.000508559030477,0.002105375262628,2.5246135964416E-05,6.02907730642243E-05,7.32149610555558E-06
standing,2.094963372,9.56904419,0.14831848137,-0.00408018028,-0.000732401,0.00425409963,0.032849602890622,0.022591956639072,0.034324364578164,0.004682183665362,0.009208948140751,0.00304630166654,0.001079096410072,0.000510396504782,0.001178162003695,2.19228438761872E-05,8.4804725859038E-05,9.27995384356545E-06
standing,2.089821773,9.57082947,0.16407653812,-0.00660094107,-0.00344540762,0.00547176302,0.035281464289452,0.023652916549595,0.044728717473628,0.003742134962368,0.008996806142559,0.003519031174395,0.001244781722408,0.000559460461302,0.002000658166836,1.40035740765775E-05,8.09425207667908E-05,1.23835804063668E-05
standing,2.099010008,9.57187684,0.17547851529,-0.00487058193,-0.00253747536,0.00521543931,0.03146781051001,0.022988274345374,0.040360652408821,0.003902360435613,0.00650455416281,0.002826076193268,0.000990223098294,0.000528460757378,0.001628982262866,1.52284169694401E-05,4.2309224856931E-05,7.98670665015587E-06
standing,2.092583004,9.5721625,0.15486450194,-0.0025741158,-0.00249475437,0.00294031284,0.026858589450191,0.02310065615186,0.033958705270729,0.002329774412618,0.005644567029168,0.002165750229394,0.000721383827254,0.000533640314646,0.001153193663664,5.42784881369168E-06,3.18611369467759E-05,4.69047405612054E-06
standing,2.058829343,9.578994165,0.13570251493,-0.00180507642,0.00138248053,0.00130607885,0.038365167898834,0.024735461450149,0.03403887802261,0.004065986417193,0.008536119437546,0.002811614040553,0.001471886107906,0.000611843053152,0.001158645217038,1.6532245544798E-05,7.28653350520507E-05,7.90517351303328E-06
standing,2.032264401,9.587468255,0.11687377933,-0.00437926118,0.00229038805,0.00417934982,0.030834677610806,0.024973472103646,0.033811960657627,0.005616148521145,0.007242792447047,0.004966163213192,0.000950777343362,0.000623674308912,0.001143248683513,3.15411242115574E-05,5.24580424309955E-05,2.46627770600606E-05
standing,2.044404293,9.58551635,0.13967773435,-0.00812835071,-0.00227047107,0.00831298832,0.038653145359681,0.031540015143545,0.051396570643908,0.005322851221805,0.008594445823693,0.00335858512936,0.001494065646197,0.000994772555255,0.002641607473954,2.83327451294662E-05,7.38644990164022E-05,1.128009407116E-05
standing,2.087822263,9.572971785,0.16383850095,-0.0048919401,0.00079499896,0.00957336149,0.057109921070746,0.03282476579661,0.045666668686851,0.006714960009723,0.011600967809989,0.004347547179241,0.003261543084707,0.001077465249602,0.002085444628955,4.50906879321819E-05,0.000134582454128,1.89011664757265E-05
standing,2.130216672,9.564735695,0.16607605004,-0.00433652398,0.00178834232,0.00708462448,0.048849894623631,0.026821528728953,0.045701922707571,0.0054235022982,0.01438566488528,0.00541645550979,0.00238631220474,0.000719394403358,0.002088665739169,2.94143771785801E-05,0.000206947354192,2.93379902895326E-05
standing,2.133144523,9.56692566,0.17735900895,-0.0057571335,-0.00215300537,0.00453181993,0.060082418871899,0.028405140227392,0.049389984156675,0.005312448616634,0.018144344983555,0.003238387585753,0.003609897057498,0.000806851991338,0.002439370534997,2.82221103043738E-05,0.000329217254882,1.04871541555575E-05
standing,2.12229003,9.570139165,0.15819702146,-0.00225368884,-0.0011489646,0.00285486873,0.060202398084159,0.028350643584705,0.051190278685786,0.00494345258374,0.016518520681007,0.004439829809662,0.003624328735084,0.000803758991667,0.002620444631928,2.44377234476889E-05,0.000272861525489,1.97120887387595E-05
standing,2.086774897,9.57701847,0.1170642089,-0.0035674658,-0.00531462012,0.00122064439,0.06097837074929,0.031070656004982,0.047300173614981,0.00650299937093,0.014655722429285,0.005288546576655,0.003718361699238,0.00096538566458,0.002237306424007,4.22890008183133E-05,0.000214790199924,2.79687248934484E-05
standing,2.051926267,9.585349775,0.13363159234,-0.00034178442,-0.00980071773,0.00630491167,0.079059606518633,0.044693230143597,0.099778147618104,0.023789838604766,0.031284079886056,0.011959952672021,0.006250421382881,0.001997484820669,0.0099556787421,0.000565956420841,0.000978693654317,0.000143040467917
standing,1.90577148664,9.451715669,-0.5651263427,0.18593750078,-0.01315459897,-0.09220733563,0.850778945184802,0.935013171325111,1.32109154939474,0.265220723198595,0.223754501187666,0.189532266710274,0.723824813569765,0.874249630551442,1.7452828818822,0.070342032013986,0.050066076801741,0.035922480124335
sit_down_chair_4,-0.07088867136,7.4027398462,-4.38538393655,0.61509551929,-0.1065185536,-0.23221588116,2.39985605796633,2.86999940448318,3.73608368378749,0.444915518382812,0.31490207194709,0.259991710412352,5.75930909895768,8.23689658173382,13.9583212922631,0.197949818497846,0.09916331491657,0.06759568948314
sit_down_chair_4,-2.714671627,4.0612463522,-8.228159817,0.44030914796,-0.11684722844,-0.14423523583,1.62267039248669,2.4243172426507,1.94195479689331,0.536239438611268,0.242924780245315,0.247061694715844,2.63305920265289,5.87731409301347,3.77118843317692,0.287552735522128,0.059012448857235,0.061039480995865
sit_down_chair_4,-3.468178096,2.602959596,-9.0394855,0.00573578511,-0.00684203479,-0.00768738365,0.581331470938103,0.372105989159244,0.254408925157973,0.095490109474983,0.119846086315714,0.067561439558789,0.337946279103058,0.13846286716818,0.064723901200035,0.009118361007544,0.014363084405194,0.004564548115256
sitting_chair_4,-3.358514409,2.608743896,-9.0883545,-0.00780791248,0.009553539,0.00279080236,0.216931097327819,0.155740689746663,0.171291626554988,0.041247714486523,0.05477769191173,0.017761521323345,0.047059100987852,0.024255162442767,0.029340821327854,0.001701373950362,0.003000595531176,0.00031547163972
sitting_chair_4,-3.318452766,2.63273804,-9.08994933,-0.00702817566,-0.00205684282,0.00285487731,0.074060522729625,0.061904310126698,0.056368372379314,0.024275446980811,0.013875642448588,0.006015920793321,0.005484961026985,0.003832143612262,0.003177393404693,0.000589297326118,0.000192533453361,3.6191302991513E-05
sitting_chair_4,-3.331187749,2.618955698,-9.097280915,-0.00398404476,0.00144662141,0.00455320672,0.024852156820677,0.025476097426812,0.03883744117297,0.002982942736139,0.003330990616884,0.002141542944433,0.000617629698639,0.0006490315401,0.001508346836864,8.89794736708366E-06,1.10954984897676E-05,4.58620618284978E-06
sitting_chair_4,-3.329830939,2.619788822,-9.09394841,-0.00396267263,0.00039985716,0.00520475816,0.027100304143032,0.024663522793252,0.034436728275199,0.003158000920461,0.003378761881686,0.002942483027427,0.000734426484645,0.000608289356573,0.0011858882543,9.97296981363173E-06,1.14160318531354E-05,8.65820636669815E-06
sitting_chair_4,-3.328688364,2.622407231,-9.092734385,-0.00337520564,0.00103004055,0.00423275962,0.028393387884358,0.026741560581463,0.033689871071772,0.002836674166485,0.003787389017225,0.003006137176606,0.000806184475552,0.000715111062332,0.001135007412833,8.04672032680232E-06,1.43443155677963E-05,9.03686072457331E-06
sitting_chair_4,-3.322166144,2.626525278,-9.0973523,-0.00379178813,0.00161751641,0.00462797307,0.031555949113039,0.034653313263422,0.035600818347832,0.003609825684091,0.003522934824897,0.002448429518172,0.000995777924425,0.001200852120133,0.001267418267035,1.30308414695247E-05,1.24110697804739E-05,5.99480710545417E-06
sitting_chair_4,-3.320571293,2.625573126,-9.099827915,-0.00205642207,0.00032532329,0.00302810154,0.050812902120017,0.061556870603241,0.049778905135663,0.010325299593051,0.003909301537164,0.004735833990269,0.002581951021858,0.003789248318464,0.002477939396505,0.000106611811686,1.52826385084699E-05,2.24281235833843E-05
sitting_chair_4,-3.328640749,2.605030517,-9.1059454,0.00379379322,-0.00078251048,-0.00034561757,0.060392353168036,0.080201382545939,0.060230459692356,0.013295000100986,0.004959339797124,0.005571702686521,0.003647236321173,0.00643226176228,0.003627708274753,0.000176757027685,2.45950512233345E-05,3.10438708269857E-05
sitting_chair_4,-3.321261596,2.595318601,-9.1129437,0.00085907071,0.00059812565,0.00071105833,0.053899886065825,0.104855056586736,0.075378018880731,0.018598640042563,0.011593978902746,0.00804560837512,0.002905197717909,0.010994582891808,0.005681845730384,0.000345909411433,0.000134420346797,6.47318141258079E-05
sitting_chair_4,-3.304551396,2.594937742,-9.117656895,-0.00146941889,0.00163416522,0.00055084405,0.044130345308844,0.09572675632419,0.070664234625506,0.016946214809482,0.011048836826592,0.007133145187077,0.001947487377078,0.009163611876351,0.004993434055209,0.000287174196369,0.000122076795221,5.08817602599233E-05
sitting_chair_4,-3.293054202,2.587630004,-9.113800695,0.00199127445,0.00356745404,0.0006362942,0.05870253125053,0.073998983538992,0.064615287147126,0.013177684658158,0.014491270411617,0.006657917500937,0.003445987175219,0.005475849564804,0.004175135333106,0.00017365137295,0.000209996918143,4.43278654492788E-05
sitting_chair_4,-3.314334714,2.557208864,-9.116871355,0.00501403935,-0.00291596579,0.00253753679,0.085213327563969,0.08326929389213,0.075325343086725,0.014616019933542,0.027411238280404,0.008290970260864,0.007261311194524,0.006933775305294,0.005673907311133,0.000213628038698,0.000751375984065,6.87401878665304E-05
sitting_chair_4,-3.337614743,2.507030641,-9.126892675,0.00787658813,-0.0094100954,0.00255889792,0.097361388993408,0.092888965605112,0.101690175446601,0.02099036136596,0.045082571048693,0.010490090494701,0.009479240066726,0.008628359931188,0.010340891782361,0.000440595270274,0.00203243821236,0.000110041998587
sitting_chair_4,-3.267631838,2.437357175,-9.1692395,0.01240539752,0.0134155244,0.00195007198,0.145605924377761,0.118746400071438,0.142057493750743,0.025109715303431,0.055381007355325,0.010729399806372,0.021201085213902,0.014100707529926,0.020180331530743,0.000630497802619,0.003067055975691,0.000115120020205
sitting_chair_4,-3.087532964,2.326241449,-9.26935794,0.01283264408,0.02016600964,0.00162963943,0.160492612490623,0.108521816235234,0.13201150308658,0.018500296905222,0.038910051450939,0.011185520960929,0.025757878664065,0.011776984598994,0.017427036947178,0.000342260985581,0.001513992103915,0.000125115879167
sitting_chair_4,-2.989461675,2.261590572,-9.323439935,-0.00353088128,-0.01085207242,0.00077515117,0.080029241089347,0.056258057865589,0.137218708240385,0.026238970501716,0.049919258228481,0.011746540133467,0.006404679429337,0.003164969074808,0.01882897389116,0.00068848357299,0.002491932342082,0.000137981205107
sitting_chair_4,-3.137592165,2.326550899,-9.255313725,-0.00798492177,-0.01656648776,-0.0016174285,0.179383804339615,0.094027483320379,0.161101913833903,0.028521279523027,0.050233672830723,0.008904196575226,0.032178549259353,0.008841167619564,0.025953826640946,0.000813463385631,0.002523421886064,7.92847166502639E-05
sitting_chair_4,-3.186294548,2.350092768,-9.22829654,0.00375366379,0.0105743388,0.00016631882,0.152678689664129,0.086693009179657,0.114786204928697,0.020354857823949,0.037986600578428,0.010161257908007,0.023310782277556,0.007515677840624,0.013175872841933,0.000414320237033,0.001442981823505,0.000103251162273
sitting_chair_4,-3.063967275,2.296510619,-9.2758325,0.00465088345,0.01319120938,0.00202484167,0.090623454133965,0.056879382868215,0.079237454654355,0.010640311293955,0.031284777301223,0.008820317457661,0.008212610439171,0.003235264195469,0.006278574220101,0.000113216224432,0.000978737290787,7.77980000539237E-05
sitting_chair_4,-3.012551264,2.276206053,-9.29692259,0.00174561208,0.00177302538,0.00021973657,0.039859227239805,0.024396230054743,0.037008051498206,0.002624161441632,0.0068873364117,0.003665259646945,0.001588757996154,0.000595176040884,0.001369595875694,6.88622327174579E-06,4.7435402847923E-05,1.34341282795228E-05
sitting_chair_4,-2.991603999,2.265089712,-9.30877684,0.00122223397,0.00104671191,-0.00011138066,0.028569051834676,0.021260775145239,0.033094899493185,0.002520565797915,0.003878519770822,0.001603028774151,0.000816190722732,0.000452020559776,0.001095272372464,6.35325194161845E-06,1.50429156126571E-05,2.56970125075631E-06
sitting_chair_4,-2.98950928,2.270159904,-9.307753245,-6.09732999999998E-06,-0.00038454199,4.88288700000001E-05,0.024406927152811,0.024431115860345,0.036693536276602,0.002668582933828,0.003809380075448,0.001838902574292,0.000595698093043,0.000596879422182,0.001346415604482,7.12133487471966E-06,1.45113765592235E-05,3.38156267773755E-06
sitting_chair_4,-3.055707401,2.281633299,-9.278546075,-0.00365905258,-0.02127687895,-0.00750274453,0.159445387463157,0.066316246481559,0.113566657439237,0.024670017277299,0.07140264379169,0.021927770239106,0.025422831583276,0.004397844547403,0.012897385681921,0.000608609752462,0.005098337540443,0.000480827107659
stand_up_chair_4,-2.8484484851,3.2649169948,-8.860719582,-0.39497375066,0.04583280696,0.11561889836,0.879660598243535,1.99549077770946,1.41544632699335,0.548754392515772,0.154637905801193,0.237599342079001,0.773802768102174,3.98198344392351,2.00348830459897,0.301131383305354,0.023912881910579,0.056453447356374
stand_up_chair_4,-0.7339648456,6.7465667878,-5.04286622464,-0.64002074827,0.14648131693,0.21865997302,2.08551471945433,3.08309992763961,3.84413171475848,0.461953005693251,0.181147334905753,0.26256084670083,4.34937164506069,9.50550516381136,14.777348640412,0.213400579469029,0.032814356943457,0.068938198220257
stand_up_chair_4,1.4307684275,9.436909802,-0.6805267337,-0.2665863028,0.08482970559,0.10858001913,0.582502898595618,0.459729410551038,1.40365175094485,0.31371129673833,0.164604148140104,0.190973968738192,0.339309626872297,0.211351130925605,1.97023823793055,0.098414777701244,0.027094525584929,0.036471056735616
standing,1.744763179,9.623911725,0.23348815897,-0.00953369004,0.00434720819,0.00801697269,0.08218410923459,0.042926235872996,0.099266908988386,0.0348487425742,0.021376359110877,0.023880297034974,0.006754227810683,0.001842661726224,0.009853919220108,0.001214434859003,0.000456948728837,0.000570268586479
standing,1.733908689,9.631029045,0.17150329595,0.00779114061,-0.00148469871,-0.00393523872,0.060931089929483,0.027604362033257,0.070689625854419,0.01158190273721,0.012451900625498,0.007902063162491,0.003712597719995,0.000762000803263,0.004997023203438,0.000134140471014,0.000155049829187,6.24426022239983E-05
standing,1.729195554,9.637646515,0.14615234352,0.0015533497,0.00011748889,-0.00051727114,0.031883111576486,0.024039057447452,0.044774010836697,0.006738819403352,0.007732593823227,0.004717657367132,0.001016532803799,0.000577876282962,0.002004712046405,4.54116869509994E-05,5.97930072350023E-05,2.22562910336593E-05
standing,1.705748896,9.6389319,0.11370788579,0.00436249112,-0.00157014191,-0.00301666384,0.037127471999267,0.02390227125804,0.061348807261452,0.007473343640838,0.005706019823052,0.004738714712047,0.001378449177056,0.000571318571293,0.003763676152403,5.58508651740587E-05,3.25586622210596E-05,2.24554171221749E-05
standing,1.691062005,9.64059813,0.08597656272,0.00317688281,-0.0024139776,-0.00233307018,0.028104909742298,0.02225099715875,0.045083818271265,0.006510237494963,0.005018432961876,0.004442392385183,0.000789885951623,0.000495106874559,0.002032550669916,4.23831922408227E-05,2.51846693928454E-05,1.97348501039305E-05
standing,1.681635739,9.64654905,0.07762145801,0.00465088142,-0.00311892876,-0.00367889254,0.031823739888332,0.024682641129318,0.052274092112203,0.004096816466415,0.005026828866293,0.00333322032999,0.00101275042048,0.000609232773119,0.002732580706155,1.67839051594911E-05,2.52690084509929E-05,1.11103577682588E-05
standing,1.644549564,9.65307124,0.02987121165,0.00288849169,-0.00306550706,-0.00257873812,0.030749771148395,0.024803306668758,0.046451067650387,0.005920201199971,0.004474948451999,0.004361880934081,0.000945548425679,0.000615204021704,0.002157701685861,3.50487822481435E-05,2.00251636480448E-05,1.90260052830968E-05
standing,1.663330693,9.649334075,0.0563885474,-0.00535735792,0.0017837266,0.00411834454,0.048131961108603,0.023148912112381,0.066139799270226,0.005327519272945,0.005174780798111,0.004734241531882,0.00231668568016,0.000535872131987,0.004374473047506,2.83824616036011E-05,2.67783563084981E-05,2.24130428821932E-05
standing,1.724649045,9.641026595,0.12087280259,-0.00347747348,0.00111079994,0.00360564964,0.038809408145161,0.022797778090022,0.050029628935591,0.006356070134678,0.005322249647542,0.004849768860412,0.001506170160578,0.000519738685842,0.002502963771433,4.03996275569468E-05,2.83263413107573E-05,2.35202579994251E-05
standing,1.734646604,9.63671815,0.12739501962,0.00379639126,-0.00224308381,-0.00280304192,0.029510552441265,0.023070471897936,0.037512212803516,0.003182399349108,0.003085211539647,0.003306975258656,0.000870872705389,0.000532246673593,0.001407166109416,1.01276656172043E-05,9.5185302443682E-06,1.09360853613655E-05
standing,1.700750124,9.63947939,0.08952331566,0.00296325729,-0.000865198,-0.00336914136,0.03921332716974,0.024078374453147,0.047687901703005,0.006329295541993,0.008882546299782,0.003840415495195,0.001537685027721,0.000579768116306,0.002274135968835,4.00599820578909E-05,7.8899628767767E-05,1.47487911757325E-05
standing,1.706986696,9.63598018,0.10461486834,-0.00530395465,-0.00411225307,0.00369110048,0.050750110775404,0.027955635850318,0.061517900502713,0.008185336744043,0.012040753476573,0.006581249638203,0.002575573743716,0.000781517575796,0.003784452082262,6.6999737613382E-05,0.000144979744284,4.33128468003412E-05
standing,1.770114136,9.62622068,0.18064392084,-0.00449218709,-0.00303346655,0.00326385615,0.054827931659547,0.027067283681813,0.05522999846084,0.00728172374459,0.009688402239472,0.006685140406673,0.003006102090064,0.000732637845912,0.003050352729984,5.30235006925224E-05,9.38651379538035E-05,4.46911022569269E-05
standing,1.78073059,9.624816295,0.1929980471,0.00354003957,0.0005019861,-0.00304870475,0.039888263008973,0.021602164140217,0.043153420426252,0.003334756332079,0.004597912608806,0.003146718481741,0.001591073525873,0.000466653495541,0.001862217694485,1.11205997943422E-05,2.11408003582157E-05,9.90183720332845E-06
standing,1.758021846,9.639907835,0.20970825177,-0.006062316,-0.01318057573,-0.00466156174,0.107154777585721,0.086622415711595,0.6484084372442,0.076805288070598,0.086503559953649,0.008009424359134,0.011482146359445,0.007503442903712,0.420433501489466,0.005899052275608,0.007482865884655,6.41508785646959E-05
standing,1.7504998715,9.63886046,0.21492126471,-0.00080718734,-0.00474246726,-0.00200195816,0.187109525245248,0.137738960097647,0.675251627198513,0.129207910747037,0.135741479552063,0.039019518027163,0.035009974437502,0.018972021128781,0.455964760034239,0.016694684199614,0.018425749270983,0.001522522787072
standing,1.7543798775,9.62265014,0.18271484454,0.0073638992,0.00688930767,0.00149077619,0.155783098309294,0.108918112996612,0.192854840608316,0.103551303327287,0.103742662273199,0.038099738659555,0.024268373718843,0.011863155338743,0.037192989546059,0.01072287242078,0.010762539975531,0.001451590085926
standing,1.769876096,9.620269785,0.1802630617,0.00037842672,-0.00074772418,-0.0005493135,0.024637850858253,0.02328443258476,0.035478477336615,0.003228421747415,0.004433932193433,0.002971082213693,0.000607023694914,0.000542164800794,0.001258722354125,1.04227069791801E-05,1.96597546959577E-05,8.82732952052147E-06
standing,1.767329099,9.62112672,0.18173889114,0.00335846453,-0.00139927229,-0.00320891134,0.032841583499134,0.033482708474743,0.068307405591589,0.020926102428403,0.006740475786928,0.003990455585732,0.001078569606731,0.001121091766805,0.004665901658654,0.000437901762844,4.54340138341576E-05,1.59237357817004E-05
standing,1.714151612,9.62562564,0.12732360743,0.01455230921,-0.00110018349,-0.00590056895,0.16587296200803,0.082429030189002,0.264685802478161,0.176976513939406,0.058762371957071,0.029652637910804,0.027513839525318,0.006794545017899,0.070058574033508,0.031320686486145,0.003453016358021,0.000879278935069
standing,1.6578320336,9.61162906,-0.15893982007,0.0123626716,0.00120695682,-0.00487518403,0.326108548575608,0.208200146969964,1.74850286806916,0.278468071239621,0.126451732863967,0.052152778115194,0.106346785454089,0.043347301198315,3.05726227964607,0.077544466699915,0.0159900407443,0.002719912265133
standing,1.6714477556,9.617008695,-0.14277709939,-0.0005508399,0.00191191185,-0.00033570011,0.287860891029901,0.194283818585832,1.73288811828921,0.215897055148258,0.112339199238609,0.043059109154755,0.082863892584529,0.037746202164292,3.00290123050791,0.04661153842169,0.012620095685572,0.001854086881201
standing,1.691585699,9.64359741,0.09049925933,0.00347595378,-0.00237123136,-0.0024932913,0.034493683409981,0.024074724260185,0.042970873145878,0.006217238290447,0.011402608074739,0.004489674462858,0.001189814195188,0.000579592348204,0.001846495938919,3.86540519602039E-05,0.000130019470906,2.01571767824358E-05
standing,1.673709112,9.663116405,0.04839049448,0.02929229732,-0.01361847799,-0.02223205508,0.075396255732892,0.047216733772519,0.080320776445755,0.049938714448077,0.01549287075099,0.038551369954678,0.00568459537854,0.002229419948145,0.006451427128849,0.002493875200727,0.000240029044107,0.001486208125382
sit_down_chair_4,0.5734777884,8.596162683,-2.26195007704,0.58839721828,-0.09624786397,-0.24773254217,1.70558313612754,1.68605079373621,3.41563293871562,0.622689280971957,0.204548412681284,0.284503403143787,2.90901383424264,2.8427672790585,11.6665483720391,0.387741940637373,0.041840053130433,0.080942186400396
sit_down_chair_4,-2.1536895766,4.8121819945,-6.92590635946,0.60895843653,-0.10664062519,-0.22804717862,2.14382667179262,3.0636745550378,3.52761126473616,0.623136092732302,0.2124742493872,0.313766828670231,4.59599279868944,9.38610177918608,12.4440412350934,0.38829859006568,0.045145306652654,0.098449622773774
sit_down_chair_4,-3.65263306,2.1343121345,-9.228010855,0.06241455098,-0.02006988513,0.00109558086,0.454003051524139,0.638346249945505,0.552107209702199,0.168226971245468,0.082499659562948,0.107275203458935,0.20611877079323,0.407485934819489,0.304822371005148,0.028300313854424,0.006806193828002,0.011507969277156
sitting_chair_4,-3.463464971,2.119268193,-9.176713865,0.01717987084,0.00243529002,0.00919189467,0.259582256003078,0.248779941586717,0.214261899489498,0.067024903490917,0.044591533751093,0.044184529701001,0.067382947631647,0.06189145933589,0.045908161572848,0.004492337687967,0.001988404882275,0.001952272664899
sitting_chair_4,-3.428735351,2.102153324,-9.194495195,0.0002929692,-0.00374909745,0.01506652978,0.177913127308778,0.17663697380345,0.185917526511546,0.038432849107567,0.045117013506472,0.024713075556151,0.03165308086879,0.031200620514441,0.034565326664171,0.001477083890525,0.002035544907743,0.000610736103444
sitting_chair_4,-3.44232726,2.172469481,-9.168834795,-0.00493011391,-0.00634461563,0.00892486852,0.179427168742339,0.152261480866138,0.180129324639063,0.022583081931261,0.041692500973754,0.022909250516283,0.032194108882892,0.02318355855555,0.032446573594925,0.000509995589514,0.001738264637446,0.000524833759218
sitting_chair_4,-3.457395017,2.234644777,-9.152362665,-0.00229186975,0.00117490887,0.00177918045,0.253214616822731,0.160834219178899,0.164266559965562,0.027743478713788,0.027797541359339,0.025053009218372,0.064117642172683,0.025867646058886,0.02698350272292,0.000769700611142,0.000772703305624,0.000627653270896
sitting_chair_4,-3.434662474,2.226551524,-9.155790405,0.00830383337,0.00449674849,-0.00680846608,0.233854113640498,0.164053885855614,0.170073665476402,0.024246341683625,0.027750115937474,0.021430503106101,0.054687746466583,0.026913677464327,0.028925051688579,0.000587885085039,0.000770068934543,0.000459266463381
sitting_chair_4,-3.370511477,2.154307254,-9.202160035,0.008207703,0.00764768425,-0.0104614249,0.157535926425885,0.158210486272817,0.165495634561887,0.023914669280123,0.027096214674167,0.016923749084438,0.024817568114862,0.025030557966681,0.027388805059042,0.000571911406778,0.000734204849669,0.000286413283073
sitting_chair_4,-3.33690064,2.072017818,-9.234675895,0.00873107914,0.00666501819,-0.00414886384,0.140461192296309,0.124477056252353,0.129599518019261,0.024761590243772,0.029918487777277,0.017611787551784,0.019729346541301,0.015494537533251,0.016796035070825,0.0006131363514,0.000895115910879,0.000310175060769
sitting_chair_4,-3.302885125,1.991704097,-9.258146335,0.00805816693,0.00406949933,0.00087128038,0.100327890829603,0.082959097764999,0.071252262421534,0.016051876923493,0.022263131832623,0.010996138228939,0.010065685678317,0.006882211901983,0.005076884900187,0.000257662752767,0.000495647038997,0.00012091505595
sitting_chair_4,-3.256705922,1.935979611,-9.287734345,0.00268555055,0.00233912079,-0.00017547181,0.044563092009226,0.032041273791474,0.034322014187138,0.006203097488825,0.007890456508702,0.004183536773794,0.001985869169423,0.00102664322618,0.001178000657862,3.84784184558668E-05,6.22593039157123E-05,1.7501979937686E-05
sitting_chair_4,-3.235734858,1.930980832,-9.297041615,0.00086975509,-0.0006302396,-0.00115813832,0.046020324810421,0.047692602992252,0.056235168116717,0.007269717057077,0.010722598185444,0.002941673620898,0.002117870295657,0.002274584380177,0.003162394133115,5.28487860899554E-05,0.000114974111846,8.6534436918865E-06
sitting_chair_4,-3.232759399,1.937717284,-9.30030275,-0.00020904374,-0.00212558425,-0.00027160402,0.049090656893137,0.052962935375205,0.058752546320598,0.008491205691325,0.012568514739538,0.004193564889601,0.0024098925942,0.002805072523558,0.003451861699154,7.21005740923868E-05,0.000157967562758,1.75859864832916E-05
sitting_chair_4,-3.241328737,1.948500366,-9.29056702,0.00089111622,-0.00129248732,-0.00107269096,0.029991071800746,0.035771837510509,0.039160292473444,0.005482991060538,0.007285366979327,0.003935194174783,0.000899464387758,0.001279624358878,0.001533528506606,3.00631909699341E-05,5.3076572023467E-05,1.54857531932441E-05
sitting_chair_4,-3.237686771,1.948214719,-9.287829595,0.00179901662,0.00043782789,-0.00226898007,0.024164268777724,0.025079905459473,0.038234970940709,0.002059625819314,0.002440843013534,0.001887004465114,0.000583911885562,0.000629001657856,0.001461913002837,4.24205851558375E-06,5.95771461671967E-06,3.56078585135962E-06
sitting_chair_4,-3.233425903,1.941859132,-9.289900515,-0.00202483552,-0.00428322245,-0.00368957221,0.029571570498798,0.041926408754077,0.046395655751736,0.011097163994742,0.01664581084882,0.004980422623816,0.000874477781765,0.001757823751014,0.002152556872634,0.000123147048726,0.000277083018815,2.48046095118159E-05
sitting_chair_4,-3.203546295,1.987490847,-9.133587455,-0.00599822745,-0.00241397224,-0.00334777739,0.572274531097858,0.113694133598864,1.35864678652755,0.02069296186335,0.035010696105045,0.01529721175559,0.327498138943273,0.012926356014796,1.84592109054163,0.000428198670678,0.00122574884176,0.000234004687495
sitting_chair_4,-3.18043289442,2.060502774,-9.0248223625,-0.00411834715,0.00206142,-0.00193786897,0.655131306122862,0.102772011889874,1.62348187959098,0.018515649683848,0.03065821721312,0.014802963302591,0.429197028262248,0.010562086427893,2.63569341336027,0.000342829283215,0.000939926282687,0.000219127722538
sitting_chair_4,-3.22904602442,2.109776458,-9.1575697325,-0.00347747722,-0.00301212737,9.15522500000002E-05,0.335481020455937,0.09985272563048,0.913478323387274,0.024013635045813,0.018847772782692,0.021321807147576,0.112547515086157,0.009970566815836,0.834442647298426,0.000576654668113,0.000355238538868,0.000454619460038
sitting_chair_4,-3.278057863,2.136930541,-9.24336424,-0.00186462324,-0.0030761798,-0.00017547536,0.103069134203542,0.104412586348861,0.124877165402535,0.025952920219306,0.019698334881861,0.022190168568283,0.010623246425468,0.010901988188058,0.015594306438972,0.00067355406791,0.000388024397118,0.000492403581089
sitting_chair_4,-3.284651489,2.142810054,-9.238484505,0.00116882407,-0.00033113469,-0.00258941462,0.055450594231555,0.049866135147774,0.052276357030123,0.010589788273873,0.007101797147746,0.006971438680533,0.003074768400633,0.002486631434576,0.002732817504341,0.000112143615685,5.04355227277343E-05,4.86009572764276E-05
sitting_chair_4,-3.28546082,2.15692565,-9.23246217,-0.00268707148,-0.00350345434,0.00168304747,0.061795912217912,0.07610819432144,0.066084400478457,0.011456226804713,0.010641555626721,0.009572425697725,0.003818734766844,0.00579245724287,0.004367147986597,0.000131245132601,0.000113242706157,9.16313337384688E-05
sitting_chair_4,-3.303432621,2.184918816,-9.22253598,-0.00027313151,-0.00097200605,0.000219727,0.124705824981769,0.101447771251689,0.101450847392848,0.018192422729298,0.016724983173305,0.021074390304696,0.015551542784384,0.010291650291935,0.010292274436727,0.000330964244761,0.000279725062147,0.000444129926715
sitting_chair_4,-3.298410035,2.179753416,-9.21817991,0.00598602543,0.00460356609,-0.0055160515,0.121846687006726,0.110513941761024,0.145273630060244,0.019334911636605,0.039412400810007,0.019626126947267,0.014846615134515,0.012213331323559,0.021104427590881,0.000373838807995,0.001553337337609,0.00038518485895
sitting_chair_4,-3.253730469,2.15706848,-9.237746565,-0.00331725871,0.01006163577,-0.00117950427,0.078260662008123,0.101505464081183,0.144190258893365,0.023626322676277,0.048344169093469,0.012407586541622,0.00612473121795,0.010303359238336,0.020790830759736,0.000558203123204,0.002337158685338,0.000153948203788
sitting_chair_4,-3.227451172,2.1650427245,-9.228558329,-0.00623321466,0.0061843842,-0.00139312645,0.13214218362046,0.318540102651185,0.478863646763733,0.071465243785134,0.120433251194633,0.020962989493089,0.017461556691983,0.101467796997028,0.229310392191861,0.005107281069269,0.01450416799331,0.000439446928487
sitting_chair_4,-3.261181033,2.1588299545,-9.226082759,-0.00149077973,-0.00136721027,-0.00419158634,0.131811569397882,0.317495475443511,0.483161217738409,0.06974984859564,0.116778070367738,0.019579285225727,0.017374289827133,0.100803376927101,0.233444762326463,0.004865041379115,0.013637117718812,0.00038334840995
sitting_chair_4,-3.288269653,2.140191653,-9.24817263,-0.00144805334,0.00019217954,-0.0022796601,0.043899995829298,0.052358729726737,0.104185859674086,0.008786493700995,0.011316173137051,0.007382939116402,0.001927209633812,0.002741436578597,0.010854693356028,7.72024715576308E-05,0.000128055774468,5.45077899964971E-05
sitting_chair_4,-3.280819081,2.134288331,-9.24217408,0.00074158543,-2.147221E-05,-0.00213012182,0.022984869682927,0.023713745353756,0.036538004689854,0.001486545899846,0.001653837315499,0.002072045861336,0.000528304234341,0.000562341718703,0.001335025786716,2.20981871234847E-06,2.7351778661373E-06,4.29337405147809E-06
sitting_chair_4,-3.273225699,2.133836058,-9.235128155,0.00076294853,-0.00060892481,-0.00151061802,0.020501816222193,0.022145529531108,0.038978190900389,0.001362108911433,0.001459691658334,0.002056522277324,0.000420324468409,0.000490424478213,0.001519299365867,1.85534068660587E-06,2.13069973740969E-06,4.2292838771295E-06
sitting_chair_4,-3.266179804,2.137049562,-9.240912465,0.00089112191,-0.00051278544,-0.00119017897,0.022056033446294,0.022119867392048,0.035696173628888,0.001282631001149,0.001501147329765,0.001950103952706,0.000486468611384,0.000489288533442,0.001274216811744,1.64514228510901E-06,2.25344330566061E-06,3.80290542635847E-06
sitting_chair_4,-3.26675109,2.132288821,-9.24519715,0.00079928861,-0.00027998284,-0.00097928607,0.023012744096118,0.022835363351513,0.03498321078591,0.001293545599179,0.001526792700624,0.001943224356104,0.000529586390833,0.000521453819396,0.001223825036891,1.67326021715485E-06,2.33109595067743E-06,3.77612089815663E-06
stand_up_chair_4,-3.269916982,2.128361203,-9.24272157,0.00019050791,-0.00018388974,-0.0003689111,0.023570926802023,0.023763467335474,0.036203789206298,0.001573988956077,0.001624479650644,0.001997577771142,0.000555588590306,0.000564702379804,0.001310714352894,2.47744123385164E-06,2.63893413535595E-06,3.99031695175944E-06
stand_up_chair_4,-3.322451779,2.085395503,-9.22372622,0.0005814372,-0.00128187193,-0.00818325084,0.17573221121042,0.231393085363259,0.132342207672068,0.05155667049282,0.088739572558378,0.030217162153875,0.030881810056904,0.053542759953928,0.017514459931517,0.002658090272305,0.007874711737844,0.000913076888634
stand_up_chair_4,-2.7906054699,3.532089838,-8.519064979,-0.45460660326,0.06916040763,0.14622345642,0.951168786165638,2.3345689801967,1.75003153855087,0.554185928685793,0.157409446137485,0.201954290888989,0.904722059775813,5.45021232329666,3.06261038592271,0.307122043553334,0.02477773373331,0.040785535608474
stand_up_chair_4,-0.5215405259,7.255942358,-4.5508435155,-0.64849090785,0.12694549569,0.21343994137,1.8653240501711,2.8696980217888,3.74982582852637,0.461186423748856,0.169561527929505,0.178700879265822,3.47943381214673,8.23516673625853,14.0611937442835,0.212692917450259,0.028751111753788,0.031934004250378
stand_up_chair_4,1.227770388,9.593800035,-0.8164459185,-0.20557555589,0.06846618321,0.06375427248,0.283145229607657,0.24237004428322,0.904616933469024,0.286338123573109,0.139534934892404,0.112528982284889,0.080171221049573,0.05874323836585,0.818331796318901,0.081989521011369,0.019469998055428,0.012662771854073
standing,1.385517582,9.69160951,-0.2873608399,-0.00562437894,-0.00472107588,0.00678100581,0.12149089806095,0.053224079469007,0.128629974181556,0.029362225049752,0.043318751747887,0.020199410657782,0.014760038311656,0.002832802635323,0.016545670257948,0.000862140259872,0.001876514252995,0.000408016190922
standing,1.471710817,9.678898295,-0.3129974376,0.00487519149,-0.00954895346,0.00341644704,0.072393567429155,0.055858746236346,0.133338345939618,0.0256977915009,0.033678749046545,0.017299386177624,0.00524082860512,0.003120199531096,0.017779114497913,0.000660376488024,0.00113425813734,0.000299268762123
standing,1.481494141,9.67451842,-0.3308740245,-0.00768584145,-0.00547943098,0.00359803231,0.053638437101338,0.04112206654637,0.112112212609899,0.01728435690242,0.028376569669548,0.010514692877167,0.002877081934674,0.001691024357044,0.012569148216287,0.00029874899353,0.000805229706211,0.000110558766301
standing,1.519508669,9.670757455,-0.2513220218,-0.00545347357,-0.01310577696,0.00304261826,0.047254082081276,0.032845038355299,0.04664640969551,0.012196247238512,0.024285345991416,0.006713386784631,0.002232948273344,0.001078796544561,0.002175887537481,0.000148748446703,0.000589778029923,4.50695621200631E-05
standing,1.560522463,9.659236445,-0.22837524478,-0.00315702702,0.00122832498,0.00405732303,0.056963742350615,0.034862557621662,0.055146301950551,0.009496721669837,0.018577611574169,0.006124482923019,0.003244867942587,0.001215397923924,0.003041114618821,9.01877224743441E-05,0.000345127651801,3.75092910743565E-05
standing,1.632980958,9.649476955,-0.16058227581,-0.00138396281,0.01831817194,0.00517883818,0.112644524557185,0.039793055451766,0.064455653387501,0.011741414349011,0.033386726653337,0.007964846331542,0.012688788912714,0.001583487262187,0.00415453125361,0.000137860810915,0.001114673516625,6.34387770850845E-05
standing,1.649619752,9.64823914,-0.15039428727,0.00347596383,0.01360777944,0.0008636533,0.10811822139507,0.046854856598695,0.065458386813148,0.010847004265268,0.037680582174086,0.010559055468732,0.011689549797634,0.002195377586884,0.00428480040418,0.000117657501531,0.001419826272978,0.000111493652392
standing,1.63909851,9.64738221,-0.19419311584,0.00439455112,-0.02393647102,-0.00260771377,0.082647202220262,0.042320506992019,0.081413975185394,0.009863895336553,0.031986683693087,0.009130219213683,0.006830560034837,0.001791025312062,0.006628235355488,9.72964312104782E-05,0.001023147933682,8.33609028899055E-05
standing,1.676041871,9.63852725,-0.19931091412,-0.00544278784,-0.01676940913,0.00415345831,0.085114603682795,0.042792823652383,0.110303355090828,0.021714737023692,0.034896057506116,0.017109598883759,0.007244495760079,0.001831225756144,0.012166830144293,0.000471529804008,0.00121773482947,0.000292738373963
standing,1.708153077,9.634028305,-0.16448608461,0.00027161703,0.01139678961,-0.00136870399,0.077213719808354,0.040562312125595,0.103209485835805,0.025586132573032,0.016657295688909,0.02145053649771,0.005961958526643,0.001645301164974,0.010652197966491,0.000654650180045,0.000277465499668,0.00046012551604
standing,1.620007935,9.648286715,-0.25098876999,0.01719055299,-0.0007156372,-0.01580962626,0.130198411227788,0.03348616232881,0.132002678276708,0.010619778781782,0.018841283640584,0.011410069919458,0.01695162628624,0.001121323067511,0.017424707072224,0.000112779701374,0.000354993969225,0.000130189695567
standing,1.501536866,9.66406861,-0.3901928719,0.00476837742,-0.01233675132,-0.00419921784,0.069850981248578,0.042564400691127,0.07486181517054,0.018856517531254,0.016558555563199,0.018603797796789,0.004879159581389,0.001811728206195,0.005604291370628,0.000355568253407,0.00027418576234,0.000346101292464
standing,1.50567871,9.671162115,-0.3780053713,0.00239716275,0.00123898899,-0.00183868269,0.065698046249714,0.039806320623997,0.076171194391701,0.019490063738702,0.023779830120255,0.016277102065116,0.00431623328103,0.00158454316162,0.005802050855058,0.000379862584539,0.000565480320548,0.000264944051638
standing,1.471948853,9.674280355,-0.4321826171,0.00536652077,-0.00530855347,-0.00603636901,0.094533347113186,0.031265545698496,0.114198716368731,0.017377839688986,0.032959601148554,0.010369088562585,0.008936553716422,0.000977534347825,0.013041346820266,0.000301989312256,0.001086335307872,0.000107517997619
standing,1.462951048,9.673113985,-0.4795281974,-0.00300749796,-0.00824587237,0.00120545717,0.105210245647613,0.057543495658618,0.087466190038651,0.016280699553978,0.029725171671103,0.0112671064261,0.011069195789231,0.003311253892613,0.007650334399877,0.000265061177967,0.000883585830877,0.000126947687217
standing,1.455857543,9.68042175,-0.4641509998,0.00403138143,-0.0054046857,-0.00414580554,0.124805650347395,0.085987060564234,0.09983465481673,0.023086067463348,0.022266448516715,0.018861360229591,0.015576450358636,0.007393774584477,0.009966958302376,0.000532966510922,0.000495794729548,0.00035575090971
standing,1.419580688,9.68313536,-0.5169238301,0.004212954,-0.01390687663,-0.00214843495,0.105988604358723,0.08518376635569,0.102165302327647,0.024559779122333,0.022076396452531,0.019827576778042,0.01123358425391,0.007256274050541,0.010437748999699,0.000603182750538,0.000487367280329,0.000393132800889
standing,1.464331666,9.674732655,-0.4965716568,-0.00485534196,0.00066222387,0.0052856513,0.08957865582447,0.064190875907965,0.091914437695964,0.015986893898845,0.022576562044467,0.011737763377966,0.008024335579319,0.004120468549832,0.008448263856965,0.000255580776533,0.000509701153748,0.000137775089117
standing,1.474519656,9.677612915,-0.4674835209,0.00196991792,-0.01269990088,-0.00553435655,0.117609635079956,0.051148720317634,0.094263352071281,0.012001719948522,0.039228519296653,0.015696187047597,0.013832026263641,0.002616191590132,0.008885579543714,0.000144041281723,0.001538876726208,0.000246370287833
standing,1.411106566,9.68480163,-0.5328247072,0.00220490321,-0.01653444006,-0.00338744969,0.11222007454982,0.038852900307196,0.101045762094333,0.012343220763764,0.036212499336984,0.017289289072409,0.012593345131967,0.001509547862281,0.010210246037225,0.000152355098823,0.001311345108231,0.000298919516629
standing,1.438457032,9.67973145,-0.5208752423,-0.00594480553,0.0060882331,0.00859680333,0.090046114498978,0.027537832924346,0.080471106094269,0.008257675540635,0.013144970978295,0.006922308759314,0.008108302736363,0.000758332242169,0.006475598916035,6.81892053344088E-05,0.00017279026202,4.79183585592736E-05
standing,1.534624029,9.669686265,-0.4258508291,-0.00285794774,0.01220854323,0.00471955452,0.065589896234367,0.02398690240932,0.054542196548049,0.006717547857706,0.016748378268541,0.005492881865043,0.004302034488035,0.000575371487194,0.002974851204286,4.51254492205699E-05,0.000280508174626,3.01717511833167E-05
standing,1.567496955,9.66435424,-0.3940966801,0.00117952556,0.01161039755,-0.00106962063,0.083723252377021,0.040602360928611,0.050139334229988,0.006164695585079,0.02434791159245,0.006341912087008,0.007009582988586,0.001648551712977,0.002513952837026,3.80034716566865E-05,0.000592820798914,4.0219848919342E-05
standing,1.556356816,9.660878905,-0.4018090818,0.00180970412,0.00085446757,-0.00432738015,0.141059569948659,0.075789008107993,0.079599272562222,0.01492930104957,0.038678204232902,0.012444950758859,0.019897802274101,0.005743973749993,0.006336044192435,0.000222884029829,0.001496003482682,0.00015487679939
standing,1.524674069,9.66742491,-0.406831664,0.00145721673,-0.000704972,-0.00386809791,0.134368231706967,0.089773789735572,0.101598267332335,0.017694379495433,0.037046638408266,0.013787951744946,0.018054821692057,0.008059333323487,0.010322207924933,0.000313091065728,0.001372453417353,0.000190107613321
standing,1.4733056613,9.6773511,-0.4420849603,0.00561218739,-0.01117249172,-0.00578002202,0.126154677245027,0.110545755933364,0.133519170596053,0.015247363185375,0.035968087049279,0.012104947568089,0.015915002590797,0.012220364154879,0.017827368916658,0.000232482084107,0.001293703285985,0.000146529755626
standing,1.4197711203,9.68082644,-0.514686279,0.00599671706,-0.00472107573,-0.00532072757,0.128292002300017,0.104442319647666,0.122560945843043,0.014609011510171,0.03882528044238,0.012614105830242,0.016458837854148,0.010908198133385,0.015021185445941,0.000213423217304,0.001507402401429,0.000159115665897
standing,1.5055834978,9.631981211,-0.52908752458,0.13187409999,-0.02797394113,-0.04708403463,0.278240192146293,0.318491349770243,0.413032342212538,0.297362060836358,0.122176836075612,0.091952471320917,0.077417604525606,0.101436739878471,0.170595715713575,0.088424195224846,0.014927179273447,0.008455256982024
sit_down_chair_4,-0.52275451295,7.4750317586,-3.97003294858,0.61250458453,-0.07085876422,-0.28705749118,2.35140287860297,2.84551828642948,3.84226113399369,0.507661283834513,0.216019847274649,0.35615694504726,5.52909549750232,8.09697431840455,14.7629706217985,0.257719979104506,0.046664574416563,0.126847769505397
sit_down_chair_4,-3.11738281275,3.8594146816,-8.252177723,0.48330536548,-0.06580657885,-0.22969970701,1.06734546653213,2.42299902717406,1.79687976930748,0.544684012186574,0.201618882149834,0.385588800720001,1.13922634492669,5.87092428568644,3.22877690534652,0.296680673131664,0.040650173639349,0.148678723240688
sitting_chair_4,-3.502503054,2.266018072,-9.1151575,0.01759644013,-0.0064300567,0.01187591697,0.271035034713705,0.2586245696137,0.248467427612908,0.054233472624667,0.109213228688574,0.05075657436212,0.07345999004226,0.066886668007871,0.061736062584576,0.00294126955293,0.011927529320583,0.002576229840977
sitting_chair_4,-3.32507019,2.100487063,-9.213466825,0.0162399467,0.0231460343,-0.00156095923,0.163188969647022,0.142325716058386,0.149704301983478,0.034894561219358,0.054206498618943,0.015158204418844,0.026630639814457,0.020256609451532,0.022411378032361,0.001217630402692,0.002938344492525,0.000229771161203
sitting_chair_4,-3.230402838,2.03233704,-9.269381735,0.0011902149,-0.00158083318,-0.00297086503,0.061740069451425,0.046349425232092,0.067637094248019,0.009396000008502,0.012198787899693,0.00684836647861,0.003811836175867,0.002148269219345,0.004574776518315,8.82848161597772E-05,0.000148810426222,4.69001234253526E-05
sitting_chair_4,-3.244089964,2.045786145,-9.265811185,-0.00135190515,-0.00420840937,-0.0006530608,0.064612033420991,0.039432199055393,0.058011698529051,0.007165106559952,0.012977417427311,0.007240841504673,0.004174714862795,0.001554898322344,0.003365357166226,5.13387520154604E-05,0.000168413363083,5.2429785695797E-05
sitting_chair_4,-3.247255857,2.053617562,-9.26402589,0.00081636872,-0.00116429281,-0.00243681303,0.053470130208655,0.039902257911397,0.043783969406194,0.007865692026562,0.015868068741022,0.006417491861957,0.002859054824531,0.001592190186428,0.001917035976963,6.18691110567168E-05,0.00025179560557,4.11842017982875E-05
sitting_chair_4,-3.25403992,2.093274535,-9.251719405,0.00516358704,0.00082243042,-0.00219115027,0.106456611033754,0.134592911444004,0.101922573057716,0.035590818600648,0.026166216954423,0.018673762814751,0.011333010032792,0.018115251810974,0.010388210898706,0.001266706368664,0.000684670909706,0.000348709417662
sitting_chair_4,-3.247184439,2.066185911,-9.264501985,-0.00057220114,-0.00338593611,-0.0018707206,0.119304665648623,0.150780415526264,0.126329640571508,0.038639414230953,0.029446864539323,0.020465061705392,0.01423360324553,0.022734733706273,0.015959178086927,0.001493004332111,0.000867117831197,0.000418818750606
sitting_chair_4,-3.223166497,2.025814822,-9.27847475,-0.0031143013,-0.00152743579,-0.00377195726,0.075119812268043,0.065620554166557,0.083296520454735,0.016933128416314,0.019316878507767,0.010194285724283,0.005642986195186,0.004306057129126,0.006938310319866,0.000286730837963,0.000373141795284,0.000103923461428
sitting_chair_4,-3.20607544,2.030147096,-9.27766539,0.00105136564,7.47103700000001E-05,-0.00303495629,0.05736853586217,0.04785895852585,0.047209473093817,0.009957335396686,0.010252712611515,0.006619318556524,0.003291148906969,0.002290479911179,0.002228734349796,9.91485282020881E-05,0.000105118115894,4.38153781527458E-05
sitting_chair_4,-3.190603025,2.011556396,-9.29566098,0.00206606113,-0.0001923089,-0.00331267033,0.042863633354066,0.048608776872036,0.045912945059041,0.007425110461303,0.007522874494643,0.005153358850087,0.001837291064312,0.002362813188995,0.002107998523995,5.51322653625505E-05,5.65936406621463E-05,2.65571074377681E-05
sitting_chair_4,-3.193649894,2.021744387,-9.300017115,-0.00225982191,-0.00227512838,-0.00031126585,0.090978458275984,0.090603992536745,0.105388014019499,0.026732450762212,0.018342182100682,0.012000880512717,0.008277079870275,0.008209083463599,0.011106633498974,0.000714623923754,0.000336435644215,0.000144021133081
sitting_chair_4,-3.179034419,2.01995911,-9.299445795,0.00406342033,0.00287318592,-0.00357970234,0.10281394577855,0.124983603687713,0.131488626061365,0.039926004982625,0.030362643045808,0.016196551546119,0.010570707446555,0.015620901190767,0.017289258783506,0.001594085873873,0.000921890092727,0.000262328281986
sitting_chair_4,-3.126999513,1.979897466,-9.31522764,0.00597534776,0.00434721398,-0.00602567827,0.083146304857384,0.10040886782948,0.090414191054395,0.030664349875326,0.0255292930648,0.011537425968296,0.006913308011437,0.010081940738798,0.008174725944021,0.000940302353276,0.000651744804388,0.000133112197974
sitting_chair_4,-3.104147949,1.961568609,-9.3333661,-0.00154417534,-0.00244600763,-0.00199887335,0.062039746172882,0.038508424708486,0.047070789164091,0.00818004321424,0.008952070001701,0.005311373863438,0.003848930105196,0.001482898773529,0.00221565919253,6.69131069868284E-05,8.01395573153561E-05,2.82106923172166E-05
sitting_chair_4,-3.111074834,1.967281495,-9.33215211,0.0005279811,-0.00224309385,-0.00338743601,0.02904824726446,0.027403359016492,0.041856418196198,0.004371326091361,0.005267770791424,0.002440894895623,0.000843800669137,0.000750944085387,0.001751959744215,1.91084917970171E-05,2.7749409110984E-05,5.95796789147959E-06
sitting_chair_4,-3.104457407,1.959402457,-9.33136658,0.00080571328,-0.00084390351,-0.00373992185,0.025404776535062,0.024962104955584,0.035075070435844,0.003097979434381,0.003547705205252,0.001884327199798,0.000645402670796,0.000623106683814,0.001230260566079,9.59747657584693E-06,1.25862122233719E-05,3.55068899589914E-06
sitting_chair_4,-3.096840217,1.946762689,-9.339888315,2.600794E-05,-0.00135660931,-0.00302427534,0.021046483377083,0.02452865086667,0.036605383128967,0.002239945536415,0.001992461269322,0.001413786280975,0.000442954462542,0.000601654713339,0.001339954074018,5.01735600610493E-06,3.96990190974642E-06,1.99879164827352E-06
sitting_chair_4,-3.151445931,1.956926882,-9.32282106,0.00215154319,-0.00259557684,-0.0132888647,0.14777447427031,0.155693039257728,0.163831818142725,0.026748366927429,0.077681206900318,0.024251926033594,0.021837295245867,0.024240322473308,0.026840864635951,0.000715475133284,0.00603436990549,0.000588155916339
stand_up_chair_4,-2.7844641204,3.35558532976,-8.574646617,-0.48073270856,0.01979215734,0.18155670517,0.953139849892323,2.37710585176558,1.82151313921212,0.606465481815847,0.141305206017414,0.280364130435265,0.90847557345276,5.65063223049815,3.3179101163224,0.367800380634127,0.019967161247624,0.078604045634723
stand_up_chair_4,-0.49092895698,7.12118960476,-4.27138794405,-0.66927642665,0.1228225644,0.27401275702,2.10667038697518,3.07699930319259,4.02796415804998,0.519981717377087,0.185596892170872,0.263690884039406,4.43806011935815,9.46792471184769,16.2244952585353,0.270380986406425,0.034446206383486,0.069532882325484
standing,1.46283203342,9.585944775,-0.32497070629,-0.18744963829,0.08680571411,0.08181610691,0.450332305033923,0.241976136860113,0.834258008631877,0.294922421287307,0.170253758570399,0.165892353292429,0.202799184957166,0.058552450809744,0.695986424966425,0.086979234577968,0.028986342307348,0.0275202728809
standing,1.509891966,9.66644888,-0.07017578155,0.00753479954,-0.00741273156,-0.00252227196,0.084347525338554,0.052984627664713,0.136912612372514,0.022862048662344,0.041410834100237,0.013578514224872,0.007114505030738,0.002807370768768,0.018745063426666,0.000522673269039,0.001714857180877,0.000184376048555
standing,1.530125121,9.65887938,-0.12530517618,-0.00634002212,-0.00357819361,0.00600128385,0.091210408650468,0.039444921428373,0.123776696039867,0.030922049448872,0.035083909775591,0.018856469539709,0.008319338646185,0.001555901826491,0.015320670482546,0.000956173142118,0.001230880725142,0.000355566443502
standing,1.663378298,9.63617068,0.04377258293,-0.01770476835,-0.00509491835,0.01346740716,0.101991581420562,0.049544753527581,0.151438117924824,0.022168308422399,0.030939513028741,0.013173928566548,0.010402282680667,0.002454682602109,0.022933503560613,0.000491433898311,0.000957253466456,0.000173552393877
standing,1.778992921,9.61043887,0.176882935,-0.00271908701,0.00333247869,0.00599060512,0.058317995995741,0.040618480468424,0.059563112103372,0.015264893599118,0.017387585150183,0.00938689729737,0.003400988656959,0.001649860955564,0.003547764323439,0.000233016976592,0.000302328117355,8.8113840871375E-05
standing,1.801558836,9.612009835,0.17112243692,0.00952151247,-0.00311893826,-0.00510711212,0.06597901144251,0.03931136954695,0.059502140806731,0.014750693467474,0.016077783895066,0.011426455168149,0.004353229950931,0.001545383775657,0.003540504760584,0.000217582957771,0.000258495134976,0.00013056387771
standing,1.676160888,9.63648007,-0.05815490721,0.02170868036,-0.01431276012,-0.01591644143,0.148236895689759,0.060063850282661,0.250829626943887,0.028315033984156,0.040352172783841,0.010807560746905,0.021974177243737,0.003607666110778,0.06291550175281,0.000801741149524,0.001628297848377,0.000116803369298
standing,1.590419924,9.65245242,-0.19678772009,0.00253601076,-0.01628877009,-0.00177459041,0.097986051825504,0.055402503593866,0.168072677623748,0.035225308501801,0.04478380097435,0.019605635719691,0.00960126635235,0.003069437404468,0.028248424963616,0.001240822359047,0.00200558882971,0.000384380951973
standing,1.665115967,9.64262145,-0.0841723656,-0.01348571067,-0.00197603668,0.0111709648,0.083782649613903,0.037529640206816,0.09417919116323,0.012168663654449,0.02631768364492,0.008943775401856,0.007019532376326,0.001408473894053,0.00886972004816,0.000148076375135,0.000692620472434,7.99911184388481E-05
standing,1.729266963,9.628291615,0.07046844243,-0.0002838029,-7.478839E-05,0.00178223192,0.05399263427948,0.030582570190285,0.918238464340869,0.009788825721944,0.009005418557036,0.008184264728718,0.002915204556438,0.000935293599444,0.843161877395077,9.58211090145952E-05,8.10975633874016E-05,6.69821891497445E-05
standing,1.724863273,9.63002928,0.04188018762,0.00531312441,-0.00345004002,-0.00360104951,0.042711141604497,0.028356073392289,0.920813174569103,0.004485911008896,0.008824174810629,0.003476889712349,0.001824241617159,0.000804066898229,0.84789690246003,2.01233975797304E-05,7.78660610885355E-05,1.20887620718363E-05
standing,1.710343014,9.63659913,-0.08036376953,-9.15363600000001E-05,-0.0006836259,-0.00030057545,0.033089230825793,0.025394920345149,0.042808799820714,0.004875845642702,0.007960998828752,0.003032107574632,0.001094897196643,0.000644901979336,0.00183259334209,2.3773870731454E-05,6.33775023513926E-05,9.1936763441386E-06
standing,1.727648314,9.632076445,-0.05220397949,-0.00284727129,0.00101467819,0.00164339134,0.036557024901157,0.023664544165589,0.049596886630044,0.003281754219003,0.006075225676754,0.002528039372855,0.001336416069624,0.000560010650565,0.002459851163393,1.07699107539433E-05,3.69083670234914E-05,6.39098307070419E-06
standing,1.745501095,9.62781558,-0.02823364476,-5.948112E-05,-0.00033114266,-8.69449E-05,0.03189392161714,0.026839634869873,0.040382709903811,0.003230686450483,0.005899141265224,0.003009980326745,0.00101722223612,0.000720365999948,0.001630763259175,1.04373349413324E-05,3.47998676670684E-05,9.05998156738918E-06
standing,1.731766353,9.63212405,-0.03666015845,0.00431978084,-1.07113499999999E-05,-0.00399626312,0.035845701009718,0.027649865450793,0.042475720650775,0.003870688009365,0.006959858181299,0.002991413116826,0.001284914280878,0.000764515059447,0.001804186844803,1.49822256658401E-05,4.84396259037974E-05,8.94855243551833E-06
standing,1.701749872,9.635289915,-0.06286804237,0.0027743696,-0.00222414992,-0.00265044255,0.033220233397346,0.02334078075359,0.044037652040882,0.00538702182848,0.006192224308918,0.004293171482025,0.001103583906974,0.000544792046187,0.001939314797274,2.90200041805199E-05,3.83436418919579E-05,1.84313213740716E-05
standing,1.716079703,9.63286189,-0.04684814698,-0.00278896816,-0.00176788783,0.00191041331,0.041695800951537,0.024731618705022,0.050185244800426,0.003737329618166,0.005512207422973,0.002882162286542,0.00173853981699,0.000611652963771,0.002518558795679,1.39676326748239E-05,3.038443067388E-05,8.30685944596745E-06
standing,1.759735711,9.62426871,-0.00071656341,-0.00133814752,-0.00074310733,0.00168610915,0.034828761715043,0.026816396789438,0.043790170343924,0.004402899569616,0.005768370765358,0.002857890966467,0.001213042642603,0.000719119136769,0.00191757901875,1.93855246201255E-05,3.32741012866375E-05,8.16754077621403E-06
standing,1.765877071,9.62181697,0.00097350214,0.00428012256,-0.00114899266,-0.00296019267,0.032473947965682,0.029704826833635,0.042659260065491,0.004509607656173,0.004892821353867,0.004343357863183,0.001054557296478,0.000882376737216,0.001819812469335,2.03365612126145E-05,2.39397008008614E-05,1.88647575276733E-05
standing,1.734075311,9.628767705,-0.02535339583,0.00450441604,-0.00212097918,-0.00463713696,0.035617005227928,0.028988818357308,0.042244847616835,0.004515862723923,0.005076169162021,0.002864679402743,0.001268571061406,0.000840351589753,0.00178462715017,2.03930161413177E-05,2.57674933614564E-05,8.20638808050079E-06
standing,1.709224238,9.631909825,-0.04875244376,0.00269930854,-0.00096741984,-0.00271451848,0.028647041234255,0.023454955011851,0.038024414910853,0.003197676098819,0.00606592488946,0.001825946630342,0.000820652971477,0.000550134914608,0.001445856129313,1.02251324329554E-05,3.67954447645701E-05,3.33408109685621E-06
standing,1.65864135495,9.555761736,-0.23984863403,0.15885773864,-0.05624237985,-0.06004026866,0.399639438789395,0.363038958675413,0.883062795441888,0.306184272051659,0.169872338965662,0.13147830779899,0.159711681035903,0.131797285516128,0.779799900693641,0.093748808451805,0.028856611545665,0.017286545421686
sit_down_chair_4,-0.50428283825,7.407595825,-3.91302306914,0.60409088137,-0.08820037812,-0.28250732238,2.38567700563202,2.81865971893375,3.94087893956765,0.47373868037344,0.200969938785696,0.300669225201809,5.69145477520138,7.94484261113967,15.5305268163279,0.224428337281968,0.040388916295527,0.090401982983456
sit_down_chair_4,-3.0473522932,3.733683477,-8.293120077,0.46319579941,-0.04521942105,-0.20098876794,1.10101158258024,2.46757945800006,1.80829163419284,0.508333798988277,0.126794160085669,0.333868966319578,1.21222650497585,6.08894838154388,3.26991863429182,0.258403251193854,0.01607675903183,0.111468486671304
sit_down_chair_4,-3.470344232,2.093536374,-9.18940118,0.02501220683,-0.00500488524,0.02322998042,0.173470591809146,0.159696401658813,0.179906119280525,0.033145355864702,0.056601963585212,0.044722212725186,0.030092046222615,0.025502940702773,0.032366211754578,0.001098614615398,0.003203782281702,0.002000076311037
sitting_chair_4,-3.389721064,2.016317139,-9.22791561,0.01690522036,0.02611999255,-0.00193481243,0.170869965211621,0.121622278605062,0.1523317431138,0.024435208005068,0.07275972046456,0.021434480306127,0.029196545011421,0.014791978653087,0.023204959960089,0.000597079390251,0.005293976922081,0.000459436945994
sitting_chair_4,-3.189722292,1.921197508,-9.317108155,0.00783692934,0.01452026352,-0.00136870844,0.161857384759592,0.098253843584509,0.133799786109009,0.020802222751497,0.067558994299089,0.010776635370739,0.026197813001215,0.009653817779129,0.017902382762817,0.000432732471403,0.004564217710704,0.000116135869914
sitting_chair_4,-3.086842658,1.876184692,-9.36309693,-0.00013120952,-0.00540008755,0.00240174141,0.041148760630914,0.04730569379388,0.061694431158368,0.008064921885483,0.012519059183784,0.005669601329131,0.00169322050146,0.00223782866532,0.003806202835955,6.50429650189403E-05,0.000156726842847,3.21443792312821E-05
sitting_chair_4,-3.09274597,1.878565067,-9.35878844,0.00289156197,0.00280303348,0.00116273986,0.045749843888019,0.04027110774311,0.056987084455637,0.007511971554183,0.017833286528867,0.004689389834125,0.002093048215778,0.001621762118857,0.003247527794754,5.64297166308583E-05,0.000318026108421,2.1990377016397E-05
sitting_chair_4,-3.030285028,1.856094363,-9.385067725,0.004632581,0.01238402892,0.00058595878,0.074874399730675,0.040092607584284,0.0571564294165,0.006331579071723,0.021673983625725,0.004965028214142,0.005606175735029,0.001607417182907,0.003266857423643,4.00888935414861E-05,0.000469761566208,2.46515051672214E-05
sitting_chair_4,-2.914694213,1.8287439,-9.42760494,0.00303041314,0.00676574549,0.00361939647,0.089364282903168,0.038466482281169,0.063598183110455,0.006624218087294,0.024975844081505,0.007362361814844,0.007985975058798,0.001479670259087,0.004044728894951,4.38802652680369E-05,0.000623792787584,5.42043714926776E-05
sitting_chair_4,-2.850828856,1.818341674,-9.44945676,0.00303042274,0.00063475601,0.00234834146,0.050770270604902,0.039298185504594,0.052403532082047,0.005853992260302,0.017760429356597,0.008647678580147,0.002577620377295,0.001544347383953,0.002746130174674,3.42692253836754E-05,0.000315432850931,7.47823448255378E-05
sitting_chair_4,-2.848686521,1.820793457,-9.45236082,0.0016098287,0.00082701267,0.00042573029,0.04412215301997,0.042929492671357,0.051023320515544,0.006833998461896,0.012508621882519,0.006252604750149,0.001946764387118,0.00184294134102,0.002603379236432,4.6703534977194E-05,0.0001564656214,3.90950661615828E-05
sitting_chair_4,-2.856970215,1.823031011,-9.453622435,0.00039219494,-0.00377655741,0.00252991728,0.041788188509413,0.038213301952925,0.048373706573822,0.005436369418983,0.014515139305995,0.00408751867897,0.001746252698898,0.001460256446145,0.00234001548769,2.9554112459655E-05,0.000210689269072,1.67078089509315E-05
sitting_chair_4,-2.885534667,1.826744393,-9.44302979,0.00057378032,-0.00538940588,0.00187837919,0.03811804206399,0.031308079952501,0.049744342174763,0.003742718621429,0.013952328286672,0.004582836478002,0.001452985130792,0.000980195870312,0.0024744995784,1.40079426791885E-05,0.000194667464619,2.10023901841017E-05
sitting_chair_4,-2.914598997,1.834075934,-9.42627197,7.175775E-05,-0.00362701599,0.00038301375,0.033153905695614,0.030484322939273,0.052086398845874,0.004096463053405,0.012630351784769,0.003913343126162,0.001099181462874,0.000929293945066,0.002712992944731,1.67810095479126E-05,0.000159525786207,1.53142544230784E-05
sitting_chair_4,-2.920740363,1.829672243,-9.42508177,0.00336154382,0.00307006385,-0.00225523839,0.040560003868791,0.038159500419067,0.058288142525109,0.007106973120923,0.016430189090809,0.006195332465203,0.001645113913836,0.001456147472233,0.003397507559027,5.05090669415193E-05,0.00026995111356,3.83821443543986E-05
sitting_chair_4,-2.900126346,1.82579224,-9.436602735,0.00167390722,0.00267486305,-0.00056761528,0.060544352254184,0.063687969233499,0.073943275490985,0.014567221912457,0.021153539299916,0.009120321696021,0.003665618589879,0.004056157425087,0.005467607990336,0.000212203954247,0.000447472224913,8.31802678389112E-05
sitting_chair_4,-2.8748468,1.823673708,-9.44524353,0.00134279152,0.00048522308,0.00027620233,0.060574720680397,0.066260488039779,0.061606219245104,0.014541414819672,0.016897744022588,0.008377747468648,0.003669296785508,0.00439045227527,0.003795326249676,0.000211452744958,0.000285533753053,7.01866526484455E-05
sitting_chair_4,-2.853804323,1.800917361,-9.45793093,0.00305180805,0.00151060954,-0.00126187084,0.037722608644614,0.040993789955799,0.032315689610234,0.006987602872602,0.007980057464612,0.004981063013365,0.001422995202955,0.00168049081494,0.001044303794985,4.88265939051939E-05,6.36813171385072E-05,2.48109887431169E-05
sitting_chair_4,-2.846115722,1.79415711,-9.45259889,0.0010651348,-0.00184327413,0.00031894912,0.023806342779437,0.025732045451406,0.035008838146193,0.002926969195291,0.003347578394673,0.001551584018415,0.000566741956532,0.000662138163113,0.001225618748346,8.56714867018321E-06,1.12062811084807E-05,2.40741296620225E-06
sitting_chair_4,-2.836832274,1.796608889,-9.448504665,0.00195165316,-4.88403999999999E-05,-0.00016169981,0.029233256384988,0.028477157690838,0.036914385241637,0.003595955264276,0.005827056357885,0.001905138185798,0.00085458327887,0.000810948510149,0.001362671837768,1.29308942626744E-05,3.3954585797965E-05,3.6295515069866E-06
sitting_chair_4,-2.823121341,1.78630188,-9.459240135,0.00058826884,-0.00160294125,0.00130084644,0.030459680450631,0.031000041545081,0.038104579454288,0.005687199591152,0.009635742523277,0.00408149403681,0.000927792133155,0.000961002575797,0.001451958975388,3.23442391896003E-05,9.28475339748922E-05,1.6658593572512E-05
sitting_chair_4,-2.836927502,1.792943118,-9.45824039,-0.00082629931,-0.00277786631,0.0021370095,0.031730802976718,0.033372313202439,0.037340689781409,0.005650730221667,0.009545744988741,0.004244119026481,0.001006843857547,0.001113711288482,0.001394327113351,3.19307520380617E-05,9.11212473900741E-05,1.80125463109367E-05
sitting_chair_4,-2.855018318,1.81393799,-9.449242575,0.00044699961,-0.00074310486,0.00043182594,0.033168635677278,0.033916404504294,0.040535786003121,0.006525049453547,0.009561585325419,0.003669706788303,0.001100158392692,0.001150322494499,0.001643149946891,4.25762703712324E-05,9.14239139352601E-05,1.34667479121175E-05
sitting_chair_4,-2.845996706,1.808486939,-9.45312257,0.00089565369,0.00121154831,-0.00111694695,0.038291888346919,0.038528929579295,0.045728429479391,0.00698729399991,0.009170673703109,0.00417069301128,0.001466268713173,0.001484478414526,0.002091089262652,4.88222774411764E-05,8.41012561689003E-05,1.73946801943415E-05
sitting_chair_4,-2.832642826,1.796466064,-9.459073475,-0.00061039304,0.00042113739,-0.00013428107,0.033725114133846,0.036696663133859,0.043430260397781,0.006144297199799,0.009280720812653,0.004635016208109,0.001137383323341,0.00134664508516,0.001886187518219,3.7752388079462E-05,8.61317788024063E-05,2.14833752494374E-05
sitting_chair_4,-2.83014343,1.798060914,-9.461620425,-0.00096288428,-0.00097809638,0.00097656205,0.03549460442488,0.033532845003927,0.041498212716496,0.005061282386772,0.00889312930608,0.003404859348998,0.001259866943279,0.001124451694057,0.001722101658664,2.56165793986433E-05,7.90877488546551E-05,1.15930671864575E-05
sitting_chair_4,-2.834475704,1.804630745,-9.467142905,-0.00169990586,-0.01531219732,-0.00024108664,0.037226434149921,0.044765047518124,0.048873982022657,0.008756159920914,0.054092358984668,0.003452651654727,0.001385807399518,0.0020039094793,0.002388666118751,7.66703365606157E-05,0.002925983300526,1.19208034488878E-05
stand_up_chair_4,-2.981915888,2.097178344,-9.49089905,-0.2156540532,0.00644531293,0.0547454857,0.458228927014643,1.17599609517976,0.595804803864807,0.450633996801246,0.147324256388386,0.166614080991417,0.209973749552991,1.38296681587804,0.354983364308381,0.203070999073065,0.021704436520391,0.027760251984615
stand_up_chair_4,-1.4306042437,5.40970273,-6.5027002,-0.62240296708,0.12021026659,0.22687225294,1.96659388906838,3.35437818460826,3.43267389418297,0.482555842211198,0.175991919076128,0.230643314258522,3.86749152452109,11.2518530053758,11.7832500638053,0.232860140852159,0.030973155580098,0.053196338412155
stand_up_chair_4,1.0125372313,9.018630928,-1.73860168294,-0.43839874422,0.13040008623,0.17620086619,1.16205712371127,1.02585420272342,2.32808257982741,0.432528213953714,0.119091760226927,0.211093923727183,1.35037675876812,1.0523768452453,5.41996849849584,0.18708065586599,0.014182847353948,0.044560644634538
standing,1.68730103,9.62395932,0.00918579131,-0.02633057854,0.02336425822,-0.0049621578,0.169704416049285,0.107500446928987,0.181516941950455,0.080474999880845,0.075382233295915,0.042070402565489,0.028799588826629,0.011556346089932,0.032948400215045,0.006476225605822,0.00568248109668,0.001769918772022
standing,1.567496951,9.653214115,-0.0065960693,0.00366209728,-0.00937347376,-0.0087646478,0.125662691113681,0.071365507641532,0.089748870686485,0.026386616955277,0.044829719346322,0.022355480587899,0.015791111937933,0.005093035680934,0.008054859789499,0.000696253554344,0.00200970373667,0.000499767512316
standing,1.538242189,9.660498025,-0.0268768312,0.00128020847,0.00065612872,0.00032501239,0.088316954257085,0.067917323717936,0.087354014055649,0.028493693502054,0.022684323437852,0.020012972229258,0.007799884409248,0.004612762861007,0.007630723771634,0.000811890569389,0.000514578529833,0.000400519057449
standing,1.552976684,9.65618953,-0.072675171,0.00269008885,0.0039993277,-0.00051880013,0.071456386741424,0.046836842604414,0.067963339369679,0.016896504811361,0.019141165861881,0.010647653322983,0.00510601520614,0.002193689825151,0.004619015498278,0.00028549187484,0.000366384230552,0.000113372521286
standing,1.56349792,9.650809925,-0.08819519069,-0.00152898611,0.00178832848,0.00141448708,0.051449158626223,0.030874752627838,0.042440303368467,0.010357777197729,0.013249152827837,0.004432109157979,0.002647015923346,0.00095325034983,0.001801179350007,0.000107283548478,0.000175540050655,1.9643591588237E-05
standing,1.603392945,9.645906395,-0.03449401875,-0.00534213661,0.00207672032,0.00206603187,0.047103707371174,0.028262243480516,0.05142467554942,0.007322847212661,0.011000120551266,0.003710575653502,0.002218759248109,0.000798754406552,0.002644497255363,5.36240912999813E-05,0.000121002652142,1.37683716803585E-05
standing,1.624483038,9.643383185,0.00159240295,3.04892299999999E-05,0.00451202509,-0.00196076396,0.031483859237213,0.024646927862389,0.036060172227482,0.006760470890961,0.00892086896915,0.004294986211375,0.000991233392469,0.000607471053054,0.001300336021076,4.57039666675328E-05,7.95819031647387E-05,1.84469065559034E-05
standing,1.598179935,9.646929935,-0.02987610518,0.00429226675,-0.00198211797,-0.00547485751,0.048714359476976,0.025955513922831,0.056660849810651,0.008918300673536,0.010139232263139,0.005276794576774,0.002373088819252,0.000673688702998,0.003210451901265,7.95360869035942E-05,0.000102804030886,2.78445610054696E-05
standing,1.577375491,9.64883423,-0.06217774095,8.388036E-05,-0.00499420544,-0.00189667248,0.059306340125944,0.029437558282635,0.051179625992491,0.009274874999282,0.012579885426461,0.006598106068803,0.003517241979134,0.000866569837644,0.002619354116731,8.60233062523026E-05,0.000158253517343,4.35350036951743E-05
standing,1.600250858,9.64600154,-0.03132813144,-0.00392155724,-0.00788879468,0.00303801875,0.077299032920106,0.03192674067114,0.062316212308172,0.006495285054114,0.028783113639798,0.004126629881813,0.005975140490384,0.001019316769882,0.003883310316437,4.21887279342027E-05,0.000828467630802,1.70290741814695E-05
standing,1.63250488,9.6380511,0.00575805236,-0.00251164051,-0.00624389649,0.0009979203,0.076923969739974,0.033085699629366,0.05621462043147,0.00780184380345,0.03041535870799,0.00627491395658,0.005917297120556,0.001094663519965,0.003160083550254,6.08687667334249E-05,0.000925094045336,3.93745451624851E-05
standing,1.635289919,9.6388605,-0.00231140358,0.00230556852,0.00159606818,-0.00359497151,0.057855445737722,0.030873213376762,0.047871392146797,0.00642568274208,0.014991927089632,0.00555834632291,0.00334725260151,0.000953155304207,0.002291670186072,4.12893987018616E-05,0.000224757877861,3.08952138454106E-05
standing,1.625649418,9.64114569,-0.00735778835,-0.00191347193,0.00393524049,-0.0025802632,0.11809577312827,0.033481096702738,0.064709327147633,0.009310593280697,0.035198647213262,0.005993252188114,0.013946611630764,0.001120983836418,0.004187297019899,8.66871472385616E-05,0.001238944765644,3.59190717903331E-05
standing,1.624483032,9.639193735,0.0394165036,-0.00376133103,0.00268554772,-8.087709E-05,0.119369797911563,0.034114444933836,0.075094573495422,0.008566958653937,0.036929829391373,0.005665567965942,0.014249148653448,0.001163795353144,0.005639194968459,7.33927805782656E-05,0.001363812298876,3.20986603767113E-05
standing,1.619674687,9.64328792,0.04141601329,0.00779568358,0.00080566163,-0.00474853734,0.057290470708308,0.031540515307253,0.06605114106054,0.009290644692109,0.015253863534586,0.006590110607901,0.00328219803398,0.000994804105847,0.004362753235399,8.63160787950091E-05,0.000232680352732,4.3429557824365E-05
standing,1.573995363,9.65140501,-0.05391784915,0.00969695118,0.00182037089,-0.00750427209,0.070638900939014,0.054269314233633,0.081594391487338,0.011071470616095,0.016406657315742,0.004986895618104,0.004989854325872,0.002945158467389,0.006657644722189,0.000122577461603,0.000269178404276,2.48691279058642E-05
standing,1.541622318,9.658450955,-0.10090637242,-0.0002258421,-0.00124511564,-0.00042266812,0.056831881201149,0.05381627118707,0.046071469611369,0.010972496433738,0.021777467894184,0.007181191726947,0.003229862720862,0.00289619104448,0.002122580312151,0.000120395677988,0.000474258107882,5.1569514619171E-05
standing,1.577232669,9.654689935,-0.06527221705,-0.00340887435,-0.00186462946,0.00250396992,0.053895695324342,0.029081291748231,0.049949943293728,0.005086063780805,0.016590305627353,0.004446539508793,0.002904745974494,0.000845721529746,0.002494996835047,2.58680447824131E-05,0.000275238240809,1.97717136032591E-05
standing,1.62212646,9.648834215,-0.01492737243,-0.00121923655,0.00104064028,-0.00060424706,0.048869195654812,0.039133038722902,0.053867258998343,0.007570770579822,0.009046739954899,0.005610760233849,0.002388198283948,0.001531394719688,0.002901681591995,5.73165671723033E-05,8.18435038115633E-05,3.14806304017414E-05
standing,1.599893796,9.651904935,-0.03368469879,0.00459136191,-0.00113830985,-0.00554962536,0.067422793355751,0.043483678542984,0.070839088891842,0.011422582426128,0.011541336889466,0.007879335067079,0.004545833063892,0.00189083029963,0.005018176515026,0.000130475389282,0.000133202457196,6.20839210993011E-05
standing,1.540979616,9.656832285,-0.09516968035,0.00528562515,-0.00240936311,-0.00516510506,0.044436580762739,0.031925091480158,0.050470458039416,0.009094848257231,0.007770295427537,0.006837374679728,0.001974609709883,0.001019211466016,0.002547267134708,8.27162648220515E-05,6.03774910311945E-05,4.67496925109859E-05
standing,1.545978396,9.65626098,-0.10390564263,-0.00142216145,-0.00166168113,0.00130767166,0.039392594621088,0.02501743434864,0.045604006243418,0.004347100493673,0.005051263616873,0.003846340159569,0.001551776510981,0.000625872021388,0.00207972538545,1.88972827020914E-05,2.55152641271478E-05,1.47943326231146E-05
standing,1.587420657,9.64840581,-0.07757874016,-0.00291753245,-0.00269775238,0.00158538321,0.038908641942602,0.02386917293392,0.050852199800715,0.002949700066132,0.007759706802587,0.002965863344726,0.001513882417818,0.000569737416549,0.002585946224572,8.70073048013787E-06,6.02130496621099E-05,8.79634537959027E-06
standing,1.615294802,9.63986029,-0.04303955527,-0.00229802407,-0.00135193086,0.00137176106,0.047622108609975,0.025696437268203,0.040853675445013,0.003925443836523,0.011346382021675,0.003401661953282,0.00226786522846,0.000660306888279,0.001669022797366,1.5409109313696E-05,0.000128740384982,1.15713040444081E-05
standing,1.699678954,9.63526615,0.05146117326,0.0439193303,-0.00886078149,-0.01780090557,0.144774484427792,0.126942474651509,0.161935055528038,0.11660537526702,0.023655478287783,0.043268575906714,0.020959651341333,0.016114391870649,0.026222962208869,0.013596813541163,0.000559581653024,0.001872169660995
sit_down_chair_4,0.3166119364,8.334774213,-2.59084593474,0.61758268318,-0.1290985103,-0.27199096525,2.01780199751498,1.89859592383738,3.59199645237494,0.589672586818782,0.212211655144553,0.286573630335048,4.07152490117546,3.60466648201192,12.9024385138742,0.347713759645554,0.045033786579191,0.082124445603409
sit_down_chair_4,-2.3310748296,4.5242047317,-7.31676326184,0.61622619137,-0.14291992292,-0.23053741362,1.87383791821979,2.91373061278985,3.09942403499054,0.59712752071661,0.223551282870169,0.325030588864977,3.51126854375826,8.48982608390869,9.60642934867705,0.356561275997166,0.049975176072898,0.105644883697914
sit_down_chair_4,-3.507430418,2.0526177967,-9.242102674,0.05809325143,-0.02268219029,0.03869171142,0.424012995838543,0.498673674203735,0.430249284087298,0.142110721544737,0.110804505359231,0.063195818751103,0.179787020639976,0.248675433343853,0.185114446457633,0.020195457177966,0.012277638407904,0.003993711507622
