label,TYPE_ACCELEROMETER_X(Mean),TYPE_ACCELEROMETER_Y(Mean),TYPE_ACCELEROMETER_Z(Mean),TYPE_GYROSCOPE_X(Mean),TYPE_GYROSCOPE_Y(Mean),TYPE_GYROSCOPE_Z(Mean),TYPE_ACCELEROMETER_X(S.D),TYPE_ACCELEROMETER_Y(S.D),TYPE_ACCELEROMETER_Z(S.D),TYPE_GYROSCOPE_X(S.D),TYPE_GYROSCOPE_Y(S.D),TYPE_GYROSCOPE_Z(S.D),TYPE_ACCELEROMETER_X(Varience),TYPE_ACCELEROMETER_Y(Varience),TYPE_ACCELEROMETER_Z(Varience),TYPE_GYROSCOPE_X(Varience),TYPE_GYROSCOPE_Y(Varience),TYPE_GYROSCOPE_Z(Varience)
walking,-2.35328368305,9.4014541515,-0.58662108715,-0.212314487050505,-0.132343947818182,0.115157460272727,3.22080835483769,4.19921585286787,3.9249906635668,1.05451058548366,1.12947160874921,1.29834086469238,10.3736064585923,17.6334137789768,15.4055517090865,1.11199257489708,1.27570611497052,1.68568900093017
walking,-1.30096922626,9.7599023336,-0.33580138619,-0.10511779801,0.09037933164,-0.03475952305,3.50054927237529,5.24081878771129,4.36309109993459,1.25409202555456,1.13147418710144,1.43393734579455,12.2538452083272,27.4661815656276,19.0365639463284,1.57274680855955,1.28023383607686,2.05617631166431
walking,-0.8213006484,9.71707348016,-0.24593642278,-0.09989471589,0.04408721493,-0.10318297915,3.4032848614664,5.46862350378122,4.46549510045861,1.26086966383959,1.19798963439813,1.40184016315335,11.5823478482864,29.9058430261084,19.9406464922199,1.58979230919095,1.43517916412537,1.96515584302981
walking,-0.71132751129,9.81374633608,-0.29980422763,-0.07680206362,-0.06031036803,-0.13027038367,3.18211268751675,5.20026238402157,4.33680134259098,1.21968061369959,1.25796610275169,1.31925679610692,10.125841156055,27.0427288626697,18.8078458850989,1.4876207994346,1.58247871567227,1.7404384940743
walking,-0.6455340525,10.04903412402,-0.35157729997,-0.0393646247,-0.05587768864,-0.14288483034,2.98665951519599,4.99504676424077,4.09919327467596,1.23758549897798,1.27249932450385,1.33285341494239,8.92013505971073,24.9504921769522,16.8033855031486,1.53161786728058,1.61925453086276,1.7764982257236
walking,-0.56788634864,10.0418334867,-0.34938735778,-0.0035614005,-0.02667541862,-0.14004364477,3.02010300651485,5.27599018629155,4.30178645795818,1.32555267771168,1.23366336404703,1.36061465359654,9.12102216996003,27.8360724458447,18.5053667298724,1.75708990138861,1.52192529579184,1.85127223558164
walking,-0.52256409058,9.839055635,-0.46778701475,0.00591278249,0.07358856095,-0.15262604145,2.77490949305706,5.60416023034512,4.30387483179196,1.33031590824247,1.15593933950747,1.31517002958704,7.70012269465817,31.4066118873819,18.5233385677323,1.76974041572298,1.33619575662097,1.72967220672398
walking,-0.46238831499,9.7442573593,-0.57121413865,0.0128128063,0.05172424305,-0.19786072118,2.79199778909767,5.67348585815427,4.4709378310336,1.33596810804196,1.19839837095292,1.27155284073501,7.79525165432628,32.1884417826765,19.9892850889674,1.78481078570522,1.43615865550262,1.61684662678127
walking,-0.41054382641,9.6512621849,-0.48893066044,0.03460235639,-0.01931610488,-0.18759613181,3.09040604187107,5.69540832057646,4.64635676482595,1.34752739607873,1.23559704880601,1.32344617998002,9.55060950363322,32.4376759380916,21.5886311860439,1.81583008318271,1.52670006701812,1.75150979130371
walking,-0.38935851942,9.63587903709,-0.4681738146,-0.00487518325,0.00945892096,-0.15088500756,3.04874506833704,5.68425513350527,4.40842520286035,1.35197092144063,1.10921809079007,1.34759517641967,9.29484649170944,32.310756422781,19.4342127692143,1.82782537242102,1.23036477293597,1.81601275950957
walking,-0.47564697054,9.81905456219,-0.41842407004,-0.02327880925,-0.02594909762,-0.11060638218,2.86535420108143,5.44235472653477,4.38201307146681,1.37726019562945,1.00127159721282,1.27576697019755,8.21025469765501,29.6192249694353,19.202038558506,1.89684564646527,1.00254481138511,1.62758136224704
walking,-0.56181640054,9.9238563412,-0.32330443764,-0.0532608036,0.02213744944,-0.1067718525,3.00165937795196,5.47345321235673,4.25068975438953,1.43355113881234,1.13131943070603,1.29910737958957,9.00995902124695,29.9586900678582,18.0683633880721,2.05506886759015,1.27988365429302,1.68767998370408
walking,-0.36888732786,9.6686983962,-0.24258008236,-0.0794189474,-0.03487853995,-0.1158401533,3.12748362812537,5.86483469030347,4.54315187401723,1.49184905077234,1.266971698126,1.35912134131854,9.78115384419225,34.396285944587,20.6402289503863,2.22561359029033,1.60521728385228,1.8472108204275
walking,-0.1669842527,9.5221449204,-0.19644851474,-0.06130371227,-0.08486633269,-0.09340973336,3.24596493230643,5.94916439365138,4.84190611664088,1.49670596428545,1.29850614499367,1.37286831295232,10.5362883417631,35.3925569826894,23.4440548423643,2.24012874352764,1.68611820858633,1.88476740470855
walking,-0.1548205532,9.69048478695,-0.07193131434,-0.10260772727,-0.03943939226,-0.08493957691,3.21503840390706,5.97193890315114,4.51106016801712,1.48951741125522,1.25991736602608,1.36538642947128,10.3364719385973,35.66405426297,20.3496638394707,2.21866211843245,1.5873917692141,1.86428010178433
walking,-0.2176147523,9.81072925145,-0.08721327995,-0.10587615958,0.00235595492,-0.06265869055,3.20423127213899,5.89740366236022,4.41732382498225,1.46932780674393,1.27720487462073,1.34950692522414,10.2670980453534,34.7793699568197,19.5127497747558,2.15892420367092,1.63125229175495,1.82116894122792
walking,-0.25872376374,9.7364199984,-0.0197119127,-0.07815856902,-0.08636169818,-0.06532897835,3.31638509011378,5.69830695119108,4.13953150879179,1.49973281640202,1.38519429550879,1.35450785938542,10.998410065929,32.4707021099925,17.13572111228,2.24919852059314,1.91876323631009,1.83469154113688
walking,-0.14065735218,9.4481451355,0.08592894842,-0.07080993643,-0.13451233084,-0.09563140875,3.17609639120234,5.82463933995409,3.87762455262981,1.54649769166471,1.31628168880781,1.35487237046911,10.0875882862085,33.9264234405409,15.0359721711575,2.39165511032428,1.73259748429075,1.83567914026057
walking,0.12428390061,9.204460589,0.00855499107,-0.05646514774,-0.11414337007,-0.1223983774,3.06683079100137,6.26468668743685,4.21333829779916,1.51738834398351,1.22569405596323,1.28144916845245,9.40545110063411,39.2462992917485,17.7522196117011,2.302467386457,1.50232591882359,1.64211197132747
walking,0.21699935425,9.5684371402,-0.0605709817,-0.04851837122,-0.14450988857,-0.13649749948,3.03227495692032,6.2194872753748,4.37593220107176,1.48649024763185,1.28808806810813,1.24995370584331,9.19469141436616,38.682021968549,19.1487826283767,2.2096532563046,1.65917087120254,1.56238426675143
walking,0.0195416259,9.9771468667,-0.19005126922,-0.02668609557,-0.0838409427,-0.10943145948,3.22952341694836,5.89886272403603,4.66149017100668,1.50934507583179,1.2590705410846,1.30494796296013,10.4298215006178,34.7965814370218,21.7294906143918,2.27812255793769,1.58525862742707,1.70288918603379
walking,-0.0892413349,9.9227256751,-0.16950867287,-0.04317779575,-0.10070648351,-0.08844299007,3.31952379462342,5.9664254152609,4.78108144580098,1.54843798161638,1.25246093718435,1.32511188255095,11.0192382230711,35.5982322358712,22.8587397913823,2.3976601829122,1.56865839917269,1.75592150127772
walking,-0.11785339229,10.0305326834,-0.20908828745,-0.10168914961,-0.11829834197,-0.07697142987,3.21494571680945,5.81150335687449,4.4988178426933,1.5344566729973,1.26303876203689,1.29275461700285,10.3358759620314,33.7735712669634,20.2393619817356,2.35455728130596,1.59526691440769,1.6712144997822
walking,-0.11202147661,10.0722367624,-0.23169586154,-0.10548095903,-0.09928588539,-0.06060790952,3.14381948484731,5.81943380473427,4.38341310259873,1.521499958212,1.22852646229439,1.25371473002777,9.88360095330561,33.865809807684,19.2143104280342,2.31496212283913,1.50927726855757,1.57180062428861
walking,-0.07091247298,9.8871331556,-0.19471085008,-0.08044434163,-0.07236938499,-0.06594848472,3.15079190438631,6.11958200766291,4.27431962835417,1.55756582069815,1.21497793387409,1.26150600302219,9.9274896247463,37.4492839485116,18.2698082853337,2.42601128580711,1.47617137980096,1.59139739566103
walking,-0.079029548,9.7593905357,-0.16381957819,-0.10563049946,-0.06520233475,-0.0907180774,3.15250373845911,6.2074888169109,4.21860254270683,1.56403839765966,1.25217658546295,1.29682143722413,9.93827982099866,38.5329174120739,17.7966074133325,2.44621610935378,1.56794620118165,1.68174584004406
walking,-0.08581360913,9.63311185471,-0.25272644248,-0.10736084108,-0.05720214948,-0.07227173321,3.05105720008714,6.15053656670624,4.2776549533245,1.5339288209715,1.26957857211586,1.31086982787777,9.30895003820356,37.8291000583906,18.2983318997016,2.35293762780702,1.61182975077574,1.7183797056403
walking,-0.10649903777,9.59877502481,-0.21994873323,-0.09687193981,-0.0965942366,-0.09511871711,2.91208774837003,6.25422089375552,4.14809239369682,1.52466171930886,1.32729794566296,1.28937196243734,8.48025505420686,39.1152789878881,17.2066705066454,2.32459335832586,1.7617198365611,1.66248005751952
walking,-0.14115723726,9.55086409516,-0.1130938779,-0.13970335797,-0.09253539896,-0.1129135124,3.20029343147353,6.23229902268883,4.40379627575001,1.53959831644555,1.4069375604931,1.29118196536343,10.2418780475326,38.8415511082081,19.3934216383097,2.37036297600197,1.97947329912627,1.66715086767977
walking,-0.19126404014,9.56284333066,-0.0706042609,-0.16358642247,-0.04708709448,-0.08718261564,3.33941732871726,6.05865876956585,4.66569147139759,1.48018176203783,1.43008477010782,1.29288176713713,11.1517080953371,36.7073460860371,21.7686769062722,2.19093804866941,2.04514244969434,1.67154326379562
walking,-0.23718139716,9.60899280096,-0.10832717776,-0.14917755184,-0.07623596039,-0.08712921268,3.28495360113266,6.17466425549171,4.41675948733557,1.47769430485888,1.37854747390068,1.29674674641689,10.7909201615944,38.126478668047,19.5077643689687,2.18358045861237,1.90039313779795,1.68155212434278
walking,-0.23713379053,9.53674255216,-0.29468046692,-0.10463714233,0.11715698109,-0.052394105,3.28759487907517,6.19863430368903,4.66312890268492,1.53291450941433,1.28407778238111,1.33673582867672,10.8082800889213,38.4230672308704,21.7447711630554,2.34982689317298,1.6488557512048,1.78686267566804
walking,-0.21832885973,9.5127484029,-0.27806547406,-0.06916503639,0.30484619088,-0.07743072446,3.02168788282077,6.0131514003196,4.78039264850326,1.48567361286705,1.23776033927435,1.37630603339092,9.13059766118586,36.1579897631655,22.852153873864,2.20722608396944,1.53205065748054,1.89421829754826
walking,-0.2255413804,9.6660026499,-0.08535063387,-0.13568725716,0.38348083623,-0.1366790772,2.89611156733771,6.01811558682771,4.39888673293482,1.38279196669889,1.25529559397556,1.36978407148575,8.38746221046732,36.2177152164187,19.35020448919,1.91211362316697,1.57576702825446,1.87630840249608
walking,-0.17607726552,9.77932017106,0.03381073323,-0.19441223588,0.35542145066,-0.1417633053,3.03812062530544,5.91805732911169,4.36388848239802,1.39618129449154,1.22634070825484,1.34682619218439,9.23017693390633,35.0234025506525,19.0435226868061,1.94932220708807,1.50391153272299,1.81394079195389
walking,-0.07783935222,9.57794674862,-0.0920870965,-0.16132202591,0.17312621834,-0.10636596542,3.3504305472165,5.75475509780241,4.37217251729961,1.49288010848855,1.24063766124888,1.31997786252732,11.2253848517215,33.1172062356828,19.11589252103,2.22869101832078,1.5391818065091,1.74234155756218
walking,-0.1352538999,9.55097721096,-0.18097609531,-0.10598297051,0.0004333434,-0.09809875364,3.46533231495931,5.85040461707753,4.56804671467969,1.49230123773891,1.30220343815962,1.27586097815346,12.0085280531012,34.227234183522,20.8670507874959,2.22696298415709,1.69573379435473,1.6278212355747
walking,-0.1125927744,9.6588318193,-0.1970197803,-0.06470031485,-0.04732208498,-0.0952468869,3.34864516759816,5.83563020729375,4.71056082089174,1.49017011782506,1.26011929840881,1.25420924992675,11.2134244584785,34.0545799162793,22.1893832473202,2.22060698005875,1.58790064622231,1.57304084260181
walking,-0.01437867066,9.614550935,-0.22044264071,-0.06549072462,-0.085934444,-0.11634215941,3.27940326483625,5.88512241041999,4.46386708943591,1.54556690241062,1.26230333345844,1.24560131804174,10.7544857734187,34.6346657856275,19.926109392149,2.38877704982715,1.59340970566029,1.55152264350731
walking,-0.05408325806,9.6331297322,-0.28459959819,-0.03278503693,-0.0710769616,-0.1690429633,3.35707065517261,6.12627411777467,4.47763051036338,1.58802706376741,1.28948647436543,1.29411517343602,11.269923383821,37.5312345661158,20.049174987337,2.52182995525774,1.66277536757139,1.67473408211733
walking,-0.1040948498,9.66990054885,-0.18160093847,0.01316528323,-0.02623748497,-0.14472198604,3.40250656030167,6.15929791357022,4.42773825976617,1.54007364925073,1.32667231696601,1.30047445265056,11.5770508928959,37.9369507881105,19.6048660969971,2.37182684511645,1.76005943660395,1.69123380199678
walking,-0.10983154194,9.78052827555,-0.0189501861,-0.00164947395,-0.06810760323,-0.13657226697,3.1182029246302,5.97945384524912,4.24769043669985,1.49250115996537,1.37001050702423,1.26569202996153,9.72318947917231,35.7538682874645,18.0428740460313,2.22755971249799,1.87692878935679,1.60197631470814
walking,-0.0985961905,9.8749337555,-0.15750562833,0.0009246871,-0.04254761057,-0.1464202877,2.97660214886746,5.90022187248276,4.44374789070669,1.47915582896931,1.31479681117817,1.24211390166664,8.8601603526424,34.812618144524,19.7468953161602,2.18790196637388,1.72869065468427,1.54284694471352
walking,-0.08778930662,9.7797367854,-0.05260268693,-0.01767120143,0.06100616071,-0.1230926495,3.11847074653653,6.04173930372399,4.5240307003663,1.49612943714206,1.36726041910172,1.24790039511702,9.7248597970041,36.5026138141632,20.4668537778568,2.23840329268303,1.8694010536422,1.55725539613322
walking,-0.07783935768,9.6571774371,0.1196171584,-0.0678192177,0.01298370013,-0.1175918566,3.1593372370317,6.20552737775962,4.51890120848249,1.57353436817509,1.39577833290692,1.2890023874489,9.98141177729507,38.5085700361242,20.4204681320245,2.47601040782818,1.94819715461242,1.66152715484895
walking,-0.14418029556,9.6501315599,0.0567753612,-0.03273163012,-0.1013687138,-0.1673660275,3.2898580116011,6.05400339865037,4.33836858923402,1.54356754017068,1.33457774856709,1.24422513877815,10.823165736496,36.6509571508702,18.8214420160524,2.38260075106858,1.78109776697039,1.54809619596751
walking,-0.04718017274,9.7682455893,-0.1098089733,0.02055663996,-0.05627288641,-0.18337707545,3.44672004470249,5.74903674168961,4.38158918850205,1.47875856113522,1.30901130019213,1.15647701200772,11.879879066554,33.0514234572971,19.1983238167981,2.1867268821307,1.71351058403069,1.33743907930231
walking,0.02261230727,9.6784163068,-0.40975953703,0.05916900783,0.00262298512,-0.18398590194,3.32800633998321,5.66953737203262,4.48559404356625,1.43993601276285,1.20933785754049,1.15066449334885,11.0756261989684,32.1436540128745,20.1205539236771,2.07341572085139,1.46249805368062,1.32402877625375
walking,-0.14287109708,9.8172871546,-0.39878602352,0.00744018739,0.00202483936,-0.14788360669,2.99963651213963,5.56634712155509,4.11052668113277,1.46610119231546,1.17213288176479,1.23160165848197,8.99781920496122,30.9842202776447,16.8964295963043,2.14945270610882,1.37389549251422,1.51684264517555
walking,-0.30166565162,9.6786067048,0.02678266162,-0.08761139213,-0.03293457257,-0.0699859624,2.92976136579204,5.73624831235683,4.22655381413185,1.54332891992624,1.16982030963215,1.24010282924115,8.58350166048766,32.9045447010165,17.8637571437525,2.38186415508069,1.36847955682785,1.5378550270919
walking,-0.23384887481,9.5262688837,0.20774442619,-0.11533966288,-0.09201202668,-0.05151824997,3.0682786642692,5.90505854533525,4.56322043981544,1.55129938678472,1.14938465158599,1.21659509392489,9.41433396160959,34.8697164238369,20.8229807823494,2.40652978743863,1.32108507730146,1.48010362256212
walking,-0.02689941894,9.65144072936,0.10200240328,-0.11321411379,-0.09261016941,-0.07288055335,3.07731027917702,5.8855127235014,4.35832588852995,1.56029740554189,1.19492341339525,1.22818133845363,9.46983855432854,34.6392600184969,18.9950045506303,2.43452799374074,1.42784196388016,1.50842940012576
walking,0.09031005237,9.54552016626,0.2219195524,-0.03684387097,-0.07594757539,-0.14006499918,2.98318898022888,5.90251249744846,3.86747443554989,1.54130753594919,1.29170146094226,1.25945278681622,8.89941649175904,34.8396537825352,14.957358509632,2.37562892037375,1.66849266420036,1.58622132221915
walking,-0.03301696847,9.82100051975,0.196806634,-0.00100860297,-0.1513992374,-0.13279113435,3.01836416829111,5.60609008648481,3.78631714481592,1.48446980271896,1.28378710116251,1.27686543481177,9.11052225242366,31.4282460577833,14.336197521127,2.20365059518447,1.64810932111123,1.63038533861705
walking,-0.18533691404,10.23931503935,-0.04903213401,-0.04304961884,-0.11251983454,-0.07347869387,3.02241875634862,5.23163400138957,4.08388897942941,1.46836766991271,1.22379410225412,1.26661056653699,9.13501513872792,27.3699943244955,16.6781491963049,2.15610361404487,1.49767200471196,1.60430232726316
walking,-0.1771246302,10.17486051719,-0.04236113611,-0.05517272907,-0.0622009267,-0.06705932326,3.20024254094273,5.62713473361532,4.27809072187267,1.48209827387078,1.19687256311152,1.25133279071836,10.2415523208596,31.66464531026,18.302060224573,2.19661529341076,1.43250393232915,1.565833753127
walking,-0.0761492828,9.91725677849,-0.1047030566,-0.08940582509,-0.0843963625,-0.0587493902,3.54791296032342,6.09294016496313,4.49471694680342,1.51360254803809,1.22881252415406,1.2134818027399,12.5876863740309,37.1239198538209,20.2024804318819,2.29099267342741,1.50998021951787,1.47253808558088
walking,-0.1319689821,9.7292610161,-0.31937085806,-0.09797210586,-0.16237945339,-0.04090118446,3.33999523707283,5.90597681336456,4.70196149293201,1.53544280421606,1.25594338276609,1.17233304447053,11.1555681836692,34.8805621199998,22.1084418810154,2.35758460501888,1.57739378071393,1.37436476715755
walking,-0.30759275606,9.6148841524,-0.30278562618,-0.16279601749,-0.14970092579,-0.0869262687,3.34056364360609,5.5903266495464,4.29439629905971,1.48248963011288,1.25259643410202,1.21188195407198,11.1593654569828,31.2517520486286,18.4418395733777,2.19777550339221,1.56899782672509,1.46865787060533
walking,-0.33877562007,9.658849609,-0.26812742812,-0.19152831399,-0.06771239822,-0.07896880792,3.28852687434585,5.66315364536667,4.1129669078877,1.38293673720625,1.2393486077552,1.26240103479641,10.8144090032949,32.0713092110298,16.9164967853793,1.91251401911466,1.53598497154476,1.59365637265504
walking,-0.32082763302,9.5261320381,-0.23108885686,-0.07938689886,0.12695160041,0.00732421897,2.98779935098978,5.76596615292568,4.05203445010058,1.37594463355914,1.19059124750169,1.23920289496478,8.92694496177498,33.2463656766846,16.4189831848019,1.8932236346202,1.41750751862763,1.53562381488909
walking,-0.30083252261,9.6467752314,0.11268432764,-0.18009949411,0.97868805154,-0.11354370471,2.75655385189262,5.02496935298973,3.49989403831212,1.23419250051949,1.44526308823813,1.25160780626571,7.59858913838402,25.250316998486,12.2492582794127,1.52323112833856,2.08878539422362,1.56652210070527
walking,-0.31382934702,9.9855258191,0.31237367184,-0.20052185835,1.376742558,-0.3155883795,2.80085495602523,4.45234484163024,3.68317353697798,1.22577416096928,1.59396615556579,1.28459715083787,7.8447884846911,19.8233745887914,13.5657673034949,1.50252229369993,2.54072810508917,1.65018983994077
walking,-0.29502441333,9.9425600886,-0.10476255421,-0.07346954624,0.68753052164,-0.249098205,2.77128860649849,4.6450617896155,3.85550503442142,1.39609787067383,1.42667053321966,1.26494023875149,7.68004054050834,21.576599029346,14.8649190704489,1.9490892645,2.03538881035726,1.60007380761267
walking,-0.08747985806,9.60813581098,-0.35789122778,-0.03768768179,0.06753235084,-0.1842102082,2.56523296676792,5.04865410457492,3.75609173263516,1.44511673308521,1.04809260698572,1.19278489777336,6.58042017379293,25.4889082676412,14.1082251039702,2.08836237224287,1.09849811281811,1.4227358123562
walking,-0.02159118402,9.72357788228,-0.28509949083,0.01797180485,-0.14853668712,-0.20159912356,2.76225583935275,5.28486238040335,3.93159343577605,1.52015526771749,1.22755790265294,1.1941468950495,7.63005732203838,27.9297703798026,15.4574269442373,2.31087203796923,1.50689840436568,1.42598680695636
walking,-0.09628723717,9.88794252208,-0.24282411223,-0.02844848598,-0.13362579982,-0.15203857306,2.92899820100007,5.56310264814753,3.94438646863594,1.55981929435289,1.27872211612795,1.24525363688736,8.57903046146163,30.948111073826,15.5581846139583,2.43303623103555,1.63513025027474,1.55065662018121
walking,-0.0808386268,9.79853577258,-0.16172486073,-0.07832947365,-0.06690063204,-0.1367858893,3.09026685191855,6.04758707954623,3.82219903136724,1.53541311921908,1.29266923408372,1.25573101845008,9.54974921606662,36.5733094846945,14.6092054353847,2.35749344667007,1.6709937487466,1.57686039069766
walking,0.03553771967,9.78991287027,-0.2409436048,-0.06936798475,-0.01049346757,-0.11043548952,2.96098187326793,6.03205528312303,3.98820481674963,1.49331737725146,1.26395625483844,1.25164281207411,8.76741365382125,36.3856909386524,15.905777660345,2.22999678920118,1.59758541414521,1.56660972901677
walking,0.01056762507,9.71704375507,-0.1923780732,-0.02288360764,-0.01673126793,-0.15153656262,2.88428720735545,5.96671643957327,4.32398860203817,1.4603108426315,1.25964237726981,1.2383802252258,8.3191126945143,35.6017050702739,18.696877430556,2.13250775710711,1.58669891861394,1.53358558223031
walking,-0.13382568684,9.798333417,-0.12122878544,0.00098876766,-0.07298889768,-0.1882583658,2.94014825839381,5.98485534430074,4.31204914760159,1.46792327152574,1.26894427515339,1.23024305526724,8.64447178133616,35.8184934922051,18.5937678513316,2.15479873108685,1.61021957344456,1.51349797503327
walking,-0.02454286144,9.7671743687,-0.19347901317,-0.01368713494,-0.04651031628,-0.15433502305,2.8364635587778,5.86373342654629,3.95877924421256,1.47126806557905,1.12474814757541,1.22983727804206,8.0455255202744,34.3833696975962,15.6719331044082,2.16462972079271,1.26505839547431,1.51249973046191
walking,-0.07605409148,9.7299513081,-0.22908935639,-0.01642151433,-0.0020233146,-0.13368834986,2.64818707530497,5.26752716765621,3.28256576332552,1.35880477380878,0.934152064681343,1.1724993794025,7.01289478581228,27.7468424619963,10.7752379905569,1.84635041332553,0.872640079948417,1.37475479469925
walking,-0.30825928168,9.84749998285,-0.2412768603,-0.00588989548,0.0156326277,-0.15266876016,2.73533265758496,4.7717421644971,3.18066945301568,1.35808392920363,0.940818692654561,1.14347472277303,7.48204474765079,22.7695232844395,10.116658169347,1.84439195876116,0.885139812448237,1.30753444162085
walking,-0.37845642143,9.74612594545,-0.12825088448,-0.03303069956,0.04275207497,-0.12586975011,2.89222869104221,5.09369357582997,3.87015056316149,1.45027909711708,1.11006361381265,1.21283523257404,8.36498680128775,25.9457142444515,14.9780653815392,2.10330945953474,1.23224122671079,1.47096930137292
walking,-0.17117370151,9.6992266866,0.00702561106,-0.08434295943,-0.02625884929,-0.04509887676,2.96391022607194,5.64747031922975,4.12132001146604,1.47686354438221,1.13179111269654,1.2726826393149,8.78476382821381,31.8939210065809,16.9852786369104,2.18112592872518,1.28095112277887,1.61972110041355
walking,0.15684143315,9.6648243661,0.2030670253,-0.09133911359,-0.14897460852,-0.0358703576,2.72945338423495,5.78250388740295,3.59560983137485,1.46165463774533,1.10258161937037,1.25309532649569,7.44991577671163,33.4373512078302,12.9284100594795,2.13643428004244,1.21568622737339,1.57024789728533
walking,0.14108337423,9.5472102304,0.33393982701,-0.04034728605,-0.11196441556,-0.09514006998,2.8931094762679,5.50960782604914,3.50764521377482,1.39447025858169,1.12184422054301,1.21896721380598,8.37008244167109,30.3557783968619,12.3035749457174,1.94454730206888,1.25853445516576,1.48588106833391
walking,-0.1134735073,9.9846034637,0.05386535147,0.02271423814,-0.09364623625,-0.09752197344,3.21186965399806,5.11404093479508,4.15800731639408,1.39330338906826,1.12225351580867,1.21242746337688,10.3161066742736,26.1534146827597,17.2890248431867,1.94129433398911,1.25945295374493,1.46998035395049
walking,-0.148179319,10.2959440846,-0.23554017204,0.01277008064,-0.1539199795,-0.08574066206,3.00632865713378,5.08671300988198,4.16546760920226,1.43815048199022,1.12289513194493,1.18957111657118,9.03801199470383,25.8746492449026,17.3511204033132,2.06827680884871,1.26089347734562,1.41507944138039
walking,-0.08202880946,10.037899902,-0.3266369769,-0.05542907721,-0.10296019998,-0.0573074328,2.99607330434227,5.55732436139445,3.81026098334222,1.42219941310982,1.17404433283145,1.10377018825218,8.9764552449924,30.8838540577482,14.51808876118,2.02265117064992,1.37838009545363,1.21830862847426
walking,-0.14944091956,9.67657150445,-0.2798388727,-0.13458709791,-0.03893737382,0.00074462779,2.91831430381405,5.6543443070019,4.03305298637817,1.44564557306398,1.13649075079758,1.10899719246046,8.51655837584571,31.9716095421248,16.2655163909339,2.08989112291949,1.29161122664845,1.22987477288518
walking,-0.37598083072,9.33412538009,-0.27195983216,-0.21118164106,-0.05005646395,0.00424804699,2.82441461498681,5.6358396591927,4.08236275277081,1.3496298230608,1.10342918115066,1.18332575840296,7.97731791735109,31.7626886641292,16.6656856452104,1.82150065929513,1.21755595781481,1.40025985049993
walking,-0.32694518439,9.58976530154,-0.37805297255,-0.20727234002,-0.06652680066,-0.01376037314,2.7695844875838,5.43669201529264,3.86529376959424,1.31471856038743,1.29002425706557,1.19371638510186,7.67059823386481,29.5576200691467,14.9404959252641,1.7284848930272,1.66416258381758,1.42495880806066
walking,-0.01016541017,9.7155441132,-0.32551819151,-0.14794921816,-0.00873108098,-0.05899505524,2.76110546094853,5.42213137292011,4.01093014415516,1.41785169935894,1.28849005168893,1.1789521539032,7.62370336647981,29.3995086252045,16.0875606212925,2.01030344137505,1.66020661330135,1.389928181193
walking,0.0742187436,9.6645268387,-0.23427856222,-0.1245788539,-0.04703369149,-0.0705520646,2.81306591470857,5.57130345181358,4.17805396018327,1.42277087773304,1.17526341322753,1.19659391863412,7.91333984049517,31.0394221521899,17.4561348942031,2.02427697052525,1.38124409047123,1.43183700611215
walking,-0.05146484224,9.763401461,-0.2346356173,-0.06960296315,-0.09693603505,-0.1015594486,2.72044984691247,5.53788587403649,4.10944197985076,1.48469986354526,1.12226770063719,1.19090191989807,7.4008473695661,30.6681799538529,16.8875133857597,2.2043336848113,1.25948479189348,1.4182473828169
walking,-0.0880987534,9.70017283885,-0.26374757036,-0.00454406616,-0.03180237047,-0.12687377756,2.78688107251507,5.58805544420155,3.97625053043359,1.49625956732713,1.08390247585336,1.19170820497311,7.76670611234276,31.2263636474706,15.8105682807734,2.23879269281798,1.17484457716104,1.42016844580022
walking,-0.0389440911,9.7802664083,-0.25803468186,-0.0081756598,-0.10831146393,-0.16261291066,2.90449975779288,5.7379773171192,4.15155397039531,1.50757905449722,1.19635369335994,1.25167809491599,8.43611884301891,32.9243836917745,17.2354003691051,2.27279460555874,1.43126215961597,1.56669805329252
walking,-0.05753479469,9.78198024095,-0.19269348826,-0.03758086887,-0.22727813803,-0.187286374,2.94088236698704,5.90363931923557,4.53329148095813,1.55816516148281,1.37269757019094,1.30675560469301,8.64878909645529,34.8529572116243,20.5507316513276,2.42787867045877,1.8842986192081,1.70761021039659
walking,-0.03830139745,9.7725480231,-0.10331053589,-0.00019683927,-0.35873108043,-0.15757141196,2.97559553114889,5.86317309648879,4.84264011730688,1.51524277668439,1.41978282014,1.26480100190876,8.85416876499323,34.3767987593899,23.4511633057499,2.29596067229423,2.01578325636471,1.5997215744294
walking,0.0547473116,9.7243336677,-0.16110593966,0.00749358726,-0.57362518546,-0.13694610664,2.91992630927477,5.42952261378677,4.43926296307189,1.4498483152574,1.29932291438458,1.15206908671208,8.52596965159498,29.4797158136219,19.7070556553018,2.10206013725472,1.68824003584484,1.32726318055761
walking,-0.06684203425,9.7817779909,-0.26469971014,0.06204222954,-0.5021255489,-0.16175842232,3.1905281105351,5.18086251364349,4.02679260028747,1.47772035693004,1.25658214411799,1.15339791945958,10.1794696241147,26.8413363852763,16.2150586457299,2.18365745328545,1.57899868491618,1.33032676061368
walking,-0.13668211777,9.8291652114,-0.26935928527,0.0672225897,-0.20556335033,-0.17982024966,3.15021399960088,5.58536060994075,4.25357886278,1.5220827118107,1.28702641318419,1.2679571606375,9.92384824328136,31.1962531430777,18.0929331418888,2.31673578159301,1.65643698823375,1.60771536121191
walking,0.01368591449,9.59313356042,-0.34750686536,-0.00860290684,-0.05700988273,-0.14831084932,2.85384266472939,5.76978200569528,4.18451845600962,1.43170057288251,1.18289089718416,1.28082984454122,8.14441795502972,33.2903843932451,17.5101947086851,2.0497665303921,1.39923087464114,1.6405250906675
walking,-0.08326660868,9.54378845896,-0.3551240502,0.03375854329,0.0298385651,-0.1403533903,2.93554434405464,5.77416190696531,4.12825595926577,1.40157716085566,1.10940302655341,1.21736380041647,8.61742059591116,33.3409457278493,17.0424972652133,1.96441853783221,1.23077507532587,1.48197462256444
walking,-0.20704589684,9.78127215124,-0.15724379813,0.02977447554,0.01233215314,-0.14849243216,3.06467759587631,5.89425115840583,4.53943579316612,1.54613752250354,1.24819311401719,1.29400473879161,9.39224876666617,34.7421967183685,20.6064773202777,2.39054123849338,1.55798604987994,1.67444826401513
walking,-0.11397337873,9.7952151899,-0.08593383953,-0.05214996408,-0.0454742417,-0.11987762856,3.13845201376316,5.78479001260087,4.58644192704815,1.59031677189766,1.31487524828688,1.32540308454304,9.84988104269402,33.4637954898868,21.0354495501851,2.52910743497899,1.7288969185575,1.75669333651621
walking,-0.06031981618,9.72567262599,0.02749083792,-0.07760315,-0.0130355788,-0.08036804418,3.01557262306174,5.66734979159206,4.24921087593762,1.53234767466458,1.29476232135476,1.26251422238503,9.09367824495945,32.1188536602586,18.0557930681866,2.34808939604994,1.67640946879996,1.59394216172448
walking,-0.00054869997,9.67038254269,0.20663757212,-0.06079101454,-0.02996520786,-0.06699523628,2.80924804416397,5.69834099787978,4.00076364057547,1.51235318931286,1.26190705038543,1.23353073987263,7.8918745736391,32.4710901281175,16.0061097077507,2.28721216922476,1.59240940381245,1.52159808621073
walking,0.15410399884,9.6289997715,0.25981507112,-0.01690216017,-0.08618011584,-0.10466766057,2.74669457124346,5.70196781612967,3.60889397125137,1.49608245187025,1.22431295723351,1.22211786688536,7.54433106769829,32.5124369761785,13.0241156957345,2.23826270279409,1.49894221724987,1.49357208056043
walking,0.05912719692,10.0783424279,0.15472763903,-0.02008514361,-0.12273101851,-0.13661498812,2.91025692016605,5.61436621039642,3.86683517983458,1.49158544630396,1.22566342754229,1.24686309639073,8.46959534137436,31.5211079444411,14.9524143080063,2.22482714362578,1.50225083761471,1.55466758114107
walking,-0.09235961774,10.28378632004,-0.03126860679,-0.04397888251,-0.20340575989,-0.12408599646,3.0833014819049,5.53266419145574,4.28969347503543,1.49679736467255,1.22108228104257,1.23697174696153,9.50674802831697,30.6103730554166,18.4014701097615,2.24040235089068,1.49104193707612,1.53009910278106
walking,-0.08062439353,9.94166747654,-0.1561964497,-0.00305938979,-0.19987030096,-0.12756805301,3.17144361551958,5.78720726705107,4.16083396461292,1.52152548490175,1.16796664716451,1.18919974220107,10.0580546064199,33.4917679518087,17.3125392810765,2.31503980120552,1.3641460888887,1.41419602685108
walking,-0.10219054517,9.7855984482,-0.2333502355,-0.02044830817,-0.14888916288,-0.08607177664,2.95498777641397,5.86538303546333,4.08899777484072,1.49788508711002,1.2274665364074,1.15062974107839,8.73195275875598,34.402718152701,16.7199028026523,2.2436597341866,1.50667409799997,1.32394880105411
walking,0.00347412978,9.6284820505,-0.16605713675,0.01141356947,-0.05376281757,-0.10515899936,2.85879625294184,5.73534657526215,4.0700636258196,1.47130752999795,1.18452003414389,1.2239695415804,8.17271601583433,32.8942003383712,16.5654179182198,2.16474584782868,1.40308771128823,1.49810143871653
walking,-0.04867980484,9.4583033821,-0.21830627375,-0.02797851667,-0.06340789968,-0.09312133892,2.95407632435257,5.79515255002409,3.9632960125925,1.48563874806865,1.16315917760764,1.25817927132384,8.72656693010041,33.5837930780507,15.7077152834316,2.20712248976297,1.35293927245287,1.583015078789
walking,-0.20628417261,9.49104541453,-0.21863952044,-0.16968536498,-0.12207946844,-0.0359664919,2.90315596740201,5.82089321372705,4.00139570328053,1.5156097525569,1.23485668703625,1.20015315684321,8.42831457106188,33.8827978056136,16.0111675742319,2.29707292204557,1.52487103751813,1.44036759988071
walking,-0.22654113162,9.49478258443,-0.24529967012,-0.19558716265,0.04511261085,-0.0111862192,2.85255718540421,5.7391799814282,4.11223614477762,1.48085106250083,1.1320699016136,1.21351377206275,8.13708249600117,32.9381868592261,16.9104861104155,2.19291986930984,1.28158226213942,1.47261567498596
walking,-0.15132141084,9.51397430948,-0.11085632426,-0.18464965909,-0.01307830668,-0.0160247807,2.98762517544253,5.90989543564639,4.04641219918471,1.44643338535075,1.22969941806314,1.25364359839947,8.92590418893801,34.9268640602741,16.3734516857108,2.09216953825724,1.51216065878483,1.57162227180797
walking,-0.03889648479,9.62861894558,0.00324080882,-0.16567992765,-0.15348205342,-0.07300872577,3.158832914004,5.94624290622252,4.18103138341394,1.46989146239131,1.31098369853993,1.28327686104475,9.97822537859498,35.3578046998017,17.4810234290923,2.16058091121086,1.71867825783743,1.64679950209288
walking,0.01071044103,9.4254959254,-0.10767851783,-0.10308837605,-0.07415313204,-0.11030731092,3.05068314997785,5.88262414012857,4.3250685320829,1.43761966745923,1.21686506346739,1.28105325831277,9.30666768155879,34.6052667740234,18.7062178072138,2.0667503082656,1.48076058268749,1.64109745063376
walking,0.10087889534,9.4088511963,-0.13039321038,-0.0772293065,-0.01287536475,-0.13196868997,3.06064838030934,5.8665021414334,4.19700853354711,1.43474690443397,1.17067182119951,1.29161860407535,9.36756850789016,34.4158473754426,17.6148806306673,2.05849867978286,1.37047251295058,1.66827861839357
walking,0.01366211334,9.6081834789,-0.18781371535,-0.01968993975,-0.01104889077,-0.14801177702,3.45962913960584,5.92056959660822,4.2797702509186,1.46071814451252,1.18627122713319,1.27550516064534,11.9690337836098,35.0531443482816,18.3164334006479,2.13369749770809,1.40723942432408,1.62691341483291
walking,-0.19731017175,9.8334498721,-0.2407234157,0.05921172813,-0.02396240048,-0.1730056724,3.35268524832803,5.68372962285696,4.45984707255178,1.48740394210531,1.20638114154217,1.24990801037001,11.2404983743564,32.3047824257417,19.8902359105487,2.21237048699042,1.45535545866859,1.56227003438711
walking,-0.20288025025,9.98053894897,-0.1901405274,0.01348571636,-0.00399933,-0.14999847017,3.03206249167469,5.52798873222567,4.43210266628645,1.46464226059494,1.19811390326596,1.23919138965994,9.19340295342053,30.5586594236139,19.6435340445035,2.14517695152066,1.4354769251992,1.53559530020733
walking,-0.15972411605,9.8239224101,-0.0872430432,-0.05092163057,-0.05845184504,-0.09629363847,3.14287949851661,5.65579140131168,4.22862921322653,1.46811614754109,1.15057246982388,1.22187234858539,9.87769154219601,31.9879763751512,17.8813050229528,2.15536502267089,1.32381700831662,1.49297203623757
walking,-0.13639647965,9.72820770003,-0.33730103116,-0.0272201586,-0.09419097805,-0.11148224168,3.18368975674952,5.68481792272062,4.09961897286939,1.45767296471523,1.19416663173878,1.22446954947617,10.1358804672318,32.3171548144855,16.8068757227106,2.12481047206168,1.42603394435835,1.49932567759438
walking,-0.0470373558,9.6531605485,-0.48909729776,-0.0057830845,0.04456787242,-0.1689895651,2.96129803663243,5.58856713036108,4.18924554172884,1.47589721758578,1.2471230618828,1.18457374021549,8.76928606176311,31.2320825705522,17.5497782088949,2.17827259687744,1.55531593147994,1.40321494600812
walking,-0.1321832231,9.7213641212,-0.37388733085,0.06741485363,-0.02688903363,-0.19951629687,2.87783608586295,5.30306047752308,4.08173627417718,1.45660042186187,1.23291690950865,1.13138776873536,8.28194053709501,28.1224504282673,16.6605710119338,2.12168478896819,1.52008410575235,1.28003828324397
walking,-0.1330639538,9.7446917645,-0.16505736852,0.05883789113,-0.05620879679,-0.16150207693,2.86186902698105,5.18018096511613,3.79075854655998,1.40376631582333,1.19063206452222,1.16501207744633,8.19029432759348,26.8342748313515,14.3698503583176,1.9705598694402,1.41760471306844,1.35725314059581
walking,-0.09314513288,9.7402761688,0.0370123216,-0.10319518895,-0.0220931975,-0.07677917815,2.88372395350897,5.39011283828345,3.94879125298085,1.42955142569159,1.11985584100671,1.16539344018956,8.31586384004142,29.0533164094281,15.5929523596181,2.04361727869685,1.25407710463684,1.35814187043685
walking,0.05724670297,9.5209606955,0.2472228974,-0.12170563135,-0.02493438301,-0.04985199207,2.66002667968274,5.2990263689356,3.4932969914435,1.44666003169966,1.00948399649801,1.13114412650949,7.07574193662397,28.0796804586748,12.2031238704282,2.09282524731727,1.01905793918559,1.27948703493691
walking,0.11539916669,9.64271667537,0.16410034513,0.0115844679,0.00804901307,-0.120144654,2.69593812170206,5.17293741810407,3.14228089577273,1.47721888343312,1.01731045344517,1.15635474892882,7.26808235604645,26.7592815316212,9.87392922793828,2.1821756295714,1.03492055868882,1.33715630537024
walking,-0.01887756165,10.15910247627,-0.03632690602,0.01977691468,-0.14182891863,-0.12880706554,2.7401009111906,4.84135331803074,3.52739860701573,1.44613621365292,1.04995925321822,1.14750451246024,7.50815300350755,23.4387019500073,12.4425409327765,2.09130994843839,1.10241443341857,1.31676660611661
walking,-0.21016418643,10.2284307743,-0.17995849341,-0.13798370633,-0.1581604014,0.0028594966,2.42234979116688,4.51967834285919,3.5219174571184,1.35352597042947,0.978478982851215,1.01003620201514,5.86777851076621,20.4274923229104,12.4039025747553,1.83203255262705,0.957421119881548,1.02017312938116
walking,-0.46619690309,9.7561472801,-0.25822509434,-0.33411102891,0.18199157687,0.1154815632,2.21475303937742,4.50088149025183,3.22576909130871,1.11335035166573,0.876166295504428,0.840322556735072,4.90513102543152,20.2579341892915,10.4055862304426,1.23954900555421,0.767667377377953,0.706141999357768
walking,-0.50052184925,9.5609925213,-0.42768372369,-0.21251678648,0.91762390265,-0.1989074682,1.74763327793986,3.19261903196114,2.36714119233872,1.00051898030185,0.985914681289259,0.865113955848894,3.05422207416283,10.1928162832405,5.60335742446679,1.00103822994426,0.972027758781702,0.748422156604523
walking,-0.0845043939,9.818388016,0.12468139086,-0.04006957932,1.13665161508,-0.22142333605,1.26807704580557,1.27293966704952,1.52231140383553,0.762029307973545,0.914660188208211,0.646786109027105,1.60801939409899,1.62037539594815,2.3174320102477,0.58068866621064,0.83660325989308,0.418332270830422
standing,0.45874389568,9.792703835,1.09958618165,-0.08412933362,0.51181488439,0.0508819583,0.694988668752437,0.399002224726007,0.719096638967372,0.181335680547492,0.667800533570172,0.131623547399081,0.483009249694285,0.159202775336303,0.517099976174171,0.032882629039622,0.445957552636606,0.017324758229918
standing,0.44465209753,9.725624965,1.19851440275,-0.01314239912,0.05976715223,-0.01567229897,0.593744928188087,0.245132033274466,0.586953360327964,0.111373778597018,0.224255112453722,0.087919674969318,0.352533039749076,0.060089713737274,0.344514247200289,0.012404118558978,0.050290355461631,0.007729869246711
standing,0.21178039375,9.754308445,1.0922784396,0.01622008451,-0.00940400048,-0.01128234014,0.210345695733667,0.105087893170117,0.172447264326609,0.025160842036071,0.048022103063588,0.020310416468193,0.044245311713681,0.011043465290934,0.029738058973731,0.000633067971964,0.00230612238265,0.000412513017111
standing,0.20256835727,9.767471935,1.0088940379,0.00382994656,-1.52715100000001E-05,0.00400238725,0.212854452093009,0.079833315602695,0.078831062637327,0.01922457770794,0.042267268919132,0.016024311976937,0.045307017775815,0.006373358280119,0.00621433643653,0.000369584388049,0.001786522021882,0.000256778574334
standing,0.281525268,9.76280642,1.043171383,-0.00696869779,-0.00169220369,0.00404511105,0.163286517045395,0.074643697760171,0.118627750358601,0.02262948810391,0.029934593174933,0.01304786200967,0.026662486648816,0.005571681615312,0.014072543155143,0.000512093731845,0.000896079868549,0.000170246703023
standing,0.30899475108,9.75030947,1.166593626,-0.01516113632,-0.00493926831,0.00448304101,0.145444761424341,0.068144307428858,0.182000333770985,0.020677819255177,0.026456529450737,0.012183984646473,0.021154178625784,0.004643646634959,0.03312412149275,0.00042757220915,0.000699947950578,0.000148449481865
standing,0.36859924254,9.7377649,1.239147338,0.00039062497,-0.01440278178,0.00026398281,0.173581283165717,0.077530918033362,0.173948285630612,0.022891248674106,0.035903671255395,0.016027190220961,0.030130461865457,0.006011043251096,0.030258006073829,0.00052400926586,0.001289073609615,0.000256870826379
standing,0.35000854449,9.74352538,1.1821612544,0.00370178039,-0.00839998331,-0.00646514435,0.153799316147343,0.078112359973579,0.1462925447863,0.019731538052084,0.035425492200146,0.012751849562696,0.02365422964739,0.006101540780642,0.021401508660052,0.000389333593901,0.001254965497623,0.00016260966727
standing,0.2877618404,9.74038333,1.2029418914,-0.00610352333,0.00347746235,-0.00200040083,0.056638827784845,0.044034128631029,0.075448904511137,0.007972826547777,0.013901723021853,0.005952743641338,0.003207956812841,0.001939004484294,0.005692537191931,6.35659631609325E-05,0.000193257902976,3.54351568594844E-05
standing,0.2996874994,9.73324221,1.26385559,-0.00395662112,5.95019200000001E-05,0.00252841896,0.059145536641127,0.033525986340704,0.057638791566599,0.004690303563096,0.013703342669072,0.005239903605445,0.003498194504567,0.001123991760117,0.003322230293258,2.1998947513991E-05,0.000187781600306,2.74565897943533E-05
standing,0.3341790776,9.73002867,1.294729003,-0.00151063553,0.00099944822,0.00203707636,0.063564341325696,0.040496012556808,0.063101894706143,0.006322697645115,0.013517849879595,0.006180520811531,0.00404042548817,0.001639927033001,0.003981849115505,3.99765055115416E-05,0.000182732265367,3.81988375017674E-05
standing,0.3239672853,9.731813905,1.284683835,0.00251616601,0.00018768017,-0.00249172694,0.070664307719415,0.035917168489407,0.063535230550477,0.006285697319773,0.018393533023425,0.005045433345231,0.004993444385464,0.001290042992296,0.004036725521102,3.95099907957955E-05,0.000338322057084,2.54563976411711E-05
standing,0.2846911615,9.739454915,1.2269360373,0.0038192666,0.00108490084,-0.0043182082,0.073210258268753,0.036580276534061,0.073022395563656,0.008227909468373,0.021548283028022,0.005248088878169,0.005359741915778,0.001338116631308,0.005332270253855,6.76984942197446E-05,0.000464328501456,2.75424368731608E-05
standing,0.26979003938,9.737669675,1.2170098883,-0.00052796183,-0.0047577031,-0.00059049753,0.096179594210177,0.042402545979782,0.071403297079032,0.010321854029575,0.028391657302254,0.007865577347171,0.009250514342434,0.001797975905568,0.005098430833757,0.000106540670608,0.000806086204369,6.18673070043297E-05
standing,0.28335815493,9.726362915,1.257452393,-0.00452271455,-0.00491793355,0.00156709257,0.111789618158498,0.036785437834928,0.076065384308536,0.007152218034822,0.02895602970655,0.008403071511149,0.012496918728023,0.001353168436707,0.005785942690005,5.11542228176372E-05,0.000838451656367,7.06116108214901E-05
standing,0.32977538952,9.72367307,1.274757693,-0.00331574078,0.00839079636,0.00222931908,0.188845775152654,0.036958267082994,0.075717947167197,0.008835197539791,0.050697638744477,0.01818380445246,0.035662726793007,0.001365913505778,0.005733207523214,7.80607155671236E-05,0.002570250574265,0.000330650744365
standing,0.32220580972,9.72764828,1.305440673,-0.00022888423,0.00720519867,-0.00082548746,0.187918325800939,0.041867758143423,0.082776928847963,0.011308456005555,0.04991520042675,0.018486125675694,0.035313297171828,0.001752909171956,0.006852019949501,0.00012788117723,0.002491527233643,0.000341736842498
standing,0.26562438987,9.734265735,1.27551941,0.00758971576,-0.00361480964,-0.00693510816,0.100242703603176,0.050134745957363,0.12624475077151,0.012322674112615,0.016171324799964,0.007339734049139,0.010048599625674,0.002513492752209,0.015937737097361,0.000151848297286,0.000261511745786,5.38716959120836E-05
standing,0.23663146937,9.740097635,1.1933728055,-0.00069885602,-0.00473632766,-0.00064391668,0.098423266605604,0.054433602505776,0.105966746260191,0.018373927583515,0.019372654174616,0.010087574827495,0.009687139409318,0.002963017081757,0.011228951312972,0.000337601214844,0.000375299729769,0.0001017591659
standing,0.2681951906,9.7264581,1.2828985625,-0.01462707635,-0.00012206936,0.00662995383,0.109418961537378,0.056271923845222,0.131300508492713,0.011782058090454,0.022857656052158,0.007339714024335,0.011972509143918,0.003166529413242,0.017239823530445,0.000138816892847,0.000522472440199,5.38714019590135E-05
standing,0.33320312565,9.706367775,1.430814821,-0.00956421782,0.00287932175,0.00347902768,0.077705314484625,0.050409270447432,0.071722602745733,0.010369231425637,0.018037227575157,0.006857770034257,0.006038115899155,0.002541094547042,0.005144131744622,0.000107520960358,0.000325341578598,4.70290098427593E-05
standing,0.3362738043,9.69898863,1.477636712,-0.00044251551,0.00270841504,-0.001242034,0.047095194708522,0.039478889622063,0.049156358472368,0.008550987948877,0.013313414581114,0.004579392777127,0.002217957364634,0.001558582725791,0.002416347578264,7.31193949018459E-05,0.000177247007809,2.09708382072027E-05
standing,0.309470825,9.70244018,1.455499261,0.00331724822,8.086663E-05,-0.00427549239,0.055011531848521,0.035905973756559,0.060790856020517,0.007380446579508,0.014714728380655,0.005332426686311,0.003026268636321,0.001289238951407,0.003695528175707,5.44709917129715E-05,0.000216523231316,2.84347743648779E-05
standing,0.24912841736,9.72126892,1.3720910613,0.01703185085,-0.00609283458,-0.00744780961,0.075569027177165,0.044473347250519,0.128262649690208,0.021500622637266,0.021336554882569,0.005679714307236,0.005710677868503,0.001977878615665,0.016451307305553,0.00046227677379,0.000455248574257,3.22591546118207E-05
sit_down_chair_1,-0.33101562482,9.419104575,0.2798339786,0.34226226863,0.04071197308,-0.23202972035,1.19024538916827,0.910181318987777,2.10670848062751,0.45814748802698,0.260252654739846,0.342163738214275,1.41668408643632,0.828430033434329,4.43822062234786,0.209899120785432,0.067731444299138,0.117076023748767
sit_down_chair_1,-2.58496520788,6.04788022,-4.7054010057,0.61534729228,0.10903930742,-0.41343841344,2.07950013409461,3.49396304374178,4.47360475556499,0.497166316481699,0.361955507885646,0.400118173123693,4.32432080769952,12.2077777510333,20.0131395090137,0.247174346243981,0.131011789688756,0.160094552463841
sit_down_chair_1,-4.653079227,2.2637091082,-8.642391996,0.28714752208,0.04072265627,-0.19600219896,0.596820158535322,1.64226127822144,1.01926546995811,0.472233932585847,0.276233618481543,0.353343043467941,0.356194301634127,2.6970221059455,1.03890209824893,0.223004887085494,0.076305011979407,0.124851306367187
sit_down_chair_1,-5.028035284,1.4495507798,-8.636917154,0.02056732003,-0.01204224047,-0.05381469704,0.260545052844257,0.375404866480787,0.33458376139245,0.086884707741318,0.078900073824397,0.068582616654277,0.067883724561617,0.140928813777457,0.11194629338752,0.007548952439294,0.006225221649495,0.004703575307147
sitting_chair_1,-5.118108533,1.5882550071,-8.425611578,-0.00350799591,-0.01044006828,-0.03249511797,0.546621369972814,1.10885432290187,0.75319953595981,0.239323802260994,0.167532764509953,0.288138142700589,0.298794922110957,1.22955790941816,0.567309540970073,0.05727588232866,0.028067227184347,0.083023589278945
sitting_chair_1,-5.316792149,1.2287773168,-8.3670960716,0.00831603974,-0.02528686511,0.04917297205,1.49200369506801,1.30493897795938,1.10992802017598,0.254957652863044,0.209073582327078,0.305636460509075,2.2260750260966,1.70286573619768,1.23194020997178,0.065003404753432,0.043711762827078,0.093413645992516
sitting_chair_1,-5.340500642,0.79174118256,-8.5163215516,0.05191650394,0.02005462728,0.0593521137,1.43350971487536,0.5405043674746,0.958283352838849,0.124843857625761,0.169575412577167,0.131009212260387,2.05495010264204,0.292144971259117,0.918306984328067,0.015585988786881,0.028755820550717,0.017163413697087
sitting_chair_1,-5.091400764,0.97597595156,-8.602449363,0.03106689469,0.02326964481,0.04594726814,0.338919696016887,0.271601193592782,0.448350489089278,0.082400185942072,0.100861638646959,0.059421870789657,0.114866560348179,0.073767208361024,0.201018161066595,0.006789790643288,0.01017307015055,0.003530958728143
sitting_chair_1,-4.940532838,0.9837121556,-8.697211925,0.00127715939,-0.00133974992,0.00573272715,0.079318577271695,0.117897380464587,0.069426388239427,0.041523381334268,0.014882714685946,0.053832873964855,0.006291436700406,0.013899792320412,0.004820023383972,0.001724191197431,0.000221495196423,0.002897978319316
sitting_chair_1,-4.945341191,0.9564807128,-8.689713735,-0.01143341258,0.00161892973,-0.02867126457,0.080374485235853,0.1073284810182,0.078074949147412,0.034878713690715,0.015052898562238,0.022222667659418,0.006460057876928,0.011519402837674,0.006095697684371,0.001216524668719,0.000226589755125,0.000493846957901
sitting_chair_1,-4.956766967,0.9265594511,-8.69259397,-0.00283508426,0.00283660062,-0.0157684299,0.074588104127889,0.091219646016334,0.072919540696704,0.030799733922723,0.01648874638653,0.018796721258567,0.005563385277393,0.008321023819345,0.005317259415418,0.000948623609711,0.000271878757399,0.000353316730072
sitting_chair_1,-4.939652097,0.8641461202,-8.714469615,-0.00236511524,-0.00084839744,-0.0156082,0.079942944655215,0.111355478397911,0.060928871675842,0.02048353373389,0.01809296882501,0.019098505298746,0.006390874400147,0.012400042569228,0.003712327403691,0.000419575154227,0.000327355520903,0.000364752904646
sitting_chair_1,-4.989449472,0.7866650405,-8.68404848,-0.00214081403,-0.01092073286,-0.02038267771,0.108208088245662,0.170873630022066,0.129341286641643,0.030041515879018,0.026782678000372,0.023211431648437,0.011708990361781,0.029197797436918,0.016729168430116,0.000902492676309,0.000717311840872,0.00053877055917
sitting_chair_1,-5.098208629,0.7032806415,-8.61984984,-0.00841064933,-0.01421052338,-0.02011566158,0.121488933733693,0.16162036657592,0.186108407758932,0.037161491373078,0.031511047023379,0.023066181023971,0.01475956101975,0.026121142892135,0.034636339438565,0.001380976441071,0.00099294608451,0.000532048707031
sitting_chair_1,-5.225629884,0.7843084723,-8.53456116,-0.02335357851,-0.01264038522,-0.00522613519,0.167855874911832,0.229991854760313,0.18310414676892,0.044676887522244,0.031575637084841,0.044995597116242,0.028175594742417,0.052896253256089,0.033527128563974,0.001996024278675,0.000997020857314,0.002024603759847
sitting_chair_1,-5.226034543,0.9418414313,-8.523778076,-0.01486206283,0.00115966804,0.01048584421,0.166446576582254,0.199245829145563,0.167381460455554,0.057587042675975,0.052071316077014,0.06066027122509,0.027704462855952,0.039698900431903,0.028016553304234,0.003316267484165,0.002711421957992,0.003679668505101
sitting_chair_1,-5.237626961,1.1041351346,-8.513090201,-0.03542328054,-0.00026092524,-0.0347595173,0.147064320410543,0.180286099227879,0.166525278380469,0.070246915947314,0.059098877061793,0.071591736824401,0.021627914337815,0.032503077574805,0.027730668339693,0.004934629200109,0.003492677269965,0.005125376781534
sitting_chair_1,-5.392232065,1.265048223,-8.39657103,-0.03923645067,-0.01590881709,-0.03745116919,0.136098570476006,0.206912983379861,0.14482962482679,0.074888957020596,0.06278915364813,0.056069722891271,0.018522820885613,0.042812982691155,0.020975620227469,0.005608355883633,0.003942477815849,0.003143813825104
sitting_chair_1,-5.473664552,1.243005982,-8.33230101,-0.00120087189,-0.00744936203,0.00425874227,0.096054653225792,0.189958088158347,0.104430623147159,0.052686925828145,0.052869618051575,0.019116100599952,0.009226496406327,0.036084075256775,0.010905755050904,0.00277591215322,0.002795196512919,0.000365425302147
sitting_chair_1,-5.513869028,1.221987304,-8.30233214,-0.00911560597,-0.00602877785,0.00060579273,0.081729151980546,0.083966758578526,0.076120977899951,0.01952310134543,0.016127359100935,0.010462148294447,0.006679654283459,0.007050416546184,0.005794403276445,0.000381151486144,0.000260091711571,0.000109456546935
sitting_chair_1,-5.519153443,1.349479986,-8.28433655,-0.00849609602,-0.00302735642,0.00852052084,0.113634692755546,0.150415547910824,0.148025323865624,0.03498448773535,0.044729040046209,0.042161041086439,0.012912843397647,0.022624837053313,0.021911496505523,0.001223914382105,0.002000687023455,0.001777553385492
sitting_chair_1,-5.566570441,1.462809452,-8.238562005,-0.00101929233,-0.00563355752,0.01122284775,0.122542445978704,0.119254471095964,0.14786872628449,0.032098117685758,0.046051489449368,0.043576109827383,0.015016651066444,0.014221628876378,0.021865160212998,0.001030289158969,0.002120739680505,0.001898877347688
sitting_chair_1,-5.603847065,1.4298175032,-8.213972768,0.01196898719,0.009053023,-0.00772551041,0.121470943032517,0.212482825158461,0.108977272811745,0.044147376671443,0.049139377292528,0.030392990403409,0.014755190001209,0.045148950987321,0.011876045989486,0.00194899086697,0.002414678400697,0.000923733865662
sitting_chair_1,-5.416987931,1.2806158422,-8.360484618,0.00289001128,0.02535246971,-0.01670835375,0.214935081410664,0.237968479480186,0.174233859415107,0.054509550051184,0.050326343143659,0.036670237294499,0.046197089221009,0.056628997226112,0.030357437766683,0.002971291046783,0.002532740814213,0.001344706303235
sitting_chair_1,-5.230462045,1.1605737311,-8.496165749,-0.00192718503,0.01901853316,-0.02569120495,0.150486896581755,0.207251190818294,0.232783555598886,0.039811542728868,0.071128195650282,0.059693210524294,0.022646306042808,0.042953056095601,0.05418818375726,0.001584958934453,0.005059220216465,0.003563279382698
sitting_chair_1,-5.093995361,1.0627642826,-8.579764391,-0.01774597142,0.00623319813,-0.03838042253,0.222618661446986,0.331221348832715,0.362083692047094,0.09816610609251,0.126949210159634,0.074570694418447,0.049559068424448,0.109707581922563,0.131104600046455,0.009636584385366,0.016116101960155,0.005560788466049
sitting_chair_1,-4.9619918794,1.14206634275,-8.5392088325,-0.07156829789,0.00773925759,0.0179092405,0.534136634974574,0.497888526504297,0.913119960991997,0.143721641486875,0.123826631357805,0.085312209136711,0.285301944821962,0.24789298482462,0.833788063162026,0.020655910231682,0.015333034633422,0.007278173027786
sitting_chair_1,-4.9458053574,1.81878204425,-8.4267124855,-0.01091003399,-0.00017547576,0.02634735782,0.518897995810538,0.717928403074058,0.865574714301829,0.168238912046186,0.067103622692101,0.066149577998,0.269255130056193,0.515421191940467,0.749219586038692,0.028304331526484,0.004502896178404,0.004375766669314
sitting_chair_1,-5.055457155,1.54219482972,-8.4988318,0.0941925049,0.0036056485,0.00981293931,0.246368687538823,0.928124893986441,0.297662937118395,0.132107261933864,0.073841292201206,0.106178210713949,0.060697530199602,0.861415818837342,0.08860322413395,0.017452328655663,0.005452536433944,0.011273812430416
sitting_chair_1,-4.987640383,0.78580810742,-8.677216825,0.08958892822,0.01482085798,0.07796936569,0.265678199883724,0.375201184387761,0.305106699876969,0.096226596716157,0.067183591498422,0.105880436154095,0.070584905893456,0.140775928765978,0.093090098309815,0.009259557915574,0.004513634966627,0.011210666760181
sitting_chair_1,-4.786189576,0.54815185401,-8.806542345,-0.00456542992,0.00293273971,-0.01812896751,0.082873038703875,0.368422568068738,0.100332564009803,0.146462128967156,0.02148667470497,0.148458715406695,0.006867940544014,0.135735188662364,0.010066623400781,0.021451155221592,0.000461677189877,0.022039990180206
sitting_chair_1,-4.698544311,0.62289550741,-8.849698465,-0.04570922877,0.0042465127,-0.07109680202,0.099010887141813,0.421445718127315,0.079782335911505,0.149152837281626,0.024013655904101,0.139603059651387,0.009803155772609,0.177616493327848,0.006365221123496,0.022246568869159,0.000576655669881,0.019489014264029
sitting_chair_1,-4.723133548,0.8437701442,-8.83648744,0.06537475589,-0.00983125089,0.09122467074,0.107145102508258,0.228338876861147,0.067079844160654,0.118913793982694,0.023817242257277,0.145935985173854,0.011480072991505,0.05213864268621,0.004499705492618,0.014140490399359,0.000567261028742,0.021297311768663
sitting_chair_1,-4.785618289,0.5378686547,-8.817373045,0.02949676556,-0.00718232072,0.01311340358,0.05696414053865,0.260116270707603,0.049619112180553,0.13618965734016,0.019258827102837,0.177930580865531,0.003244913307307,0.067660474286831,0.002462056293586,0.01854762276643,0.000370902421377,0.031659291607145
sitting_chair_1,-4.792402341,0.3279675271,-8.80858948,-0.027967834,-0.0033584638,-0.12874298119,0.270929330412844,0.592505140109541,0.188515867705861,0.146065990076098,0.069476994852066,0.073525900161627,0.073402702077952,0.351062341056227,0.035538232376894,0.021335273456911,0.004827052813674,0.005406057994578
stand_up_chair_1,-4.746413574,1.79289550144,-8.204308492,-0.48436279484,-0.13136138865,0.20163574331,0.676208573285204,2.73653139821258,1.68325321905975,0.597735550482361,0.325903836992473,0.350320575234147,0.457258034584411,7.48860409340331,2.83334139947501,0.357287788310452,0.106213310966416,0.122724505432384
stand_up_chair_1,-2.58672668662,6.48022705594,-3.3538024898,-0.66435089346,-0.20366210901,0.475382997,2.32227258019824,3.90304369969115,4.6171012489101,0.604054566861005,0.366737384170859,0.42892975367813,5.39294993674059,15.2337501216988,21.3176239426872,0.364881919745637,0.134496308948484,0.183980733590381
standing,-0.17322082336,9.68799132,0.3777148415,-0.18974456752,0.00149078483,0.22755889853,0.908345185484299,0.633051467920832,1.14158307449635,0.622869790826531,0.358703282000176,0.491108072298034,0.825090975992505,0.40075416103672,1.30321191597653,0.387966776324287,0.128668044517698,0.241187138676291
standing,0.18097839383,9.719769255,0.594519042,-0.04585876557,0.09416046383,-0.00226745121,0.358801889677795,0.460304741551075,1.05643462061706,0.437596227687321,0.257024103240535,0.186802349013555,0.128738796036356,0.211880455094401,1.11605410763832,0.191490458486173,0.066061389646601,0.034895117596982
standing,0.19138061372,9.71077149,1.3896105957,-0.01526794774,0.00816650066,-0.01167753642,0.117551698907698,0.066884281753464,0.131474243754059,0.030281794088605,0.063994479649133,0.019314049167041,0.013818401916086,0.004473507145677,0.017285476770702,0.000916987053225,0.004095293425563,0.000373032495227
standing,0.15867431524,9.708700585,1.386920778,0.0076965302,-0.00299530813,-0.00727690156,0.092111168692975,0.036663313473055,0.069629615063703,0.009380271043994,0.022001117516399,0.009985780897323,0.008484467397986,0.001344198554824,0.00484828329392,8.79894848587841E-05,0.00048404917197,9.97158201293338E-05
standing,0.08612060576,9.725982085,1.248240359,0.01366729318,0.00460967243,-0.01078031225,0.121711040372952,0.053800216434361,0.119841188165661,0.011376527769825,0.023632944452145,0.009612911017554,0.014813577348666,0.002894463288384,0.014361910380957,0.000129425384098,0.000558516063478,9.24080582314183E-05
standing,0.01839904803,9.743477805,1.1400286853,0.003445428,0.00176848544,-0.00306852105,0.118366132254613,0.079367649776912,0.103372161630945,0.022283682767354,0.025455787518026,0.016130658569102,0.014010541264917,0.006299223831111,0.010685803800254,0.000496562517676,0.000647997118163,0.000260198145873
standing,0.05198608273,9.744287115,1.1783050493,-0.01047211052,-0.00842133839,-0.00062255138,0.15294221211181,0.080459760311996,0.118445403106839,0.018699238817031,0.053579494790402,0.022837793766597,0.023391320245654,0.006473773029464,0.014029313517142,0.000349661532336,0.002870762261995,0.000521564824126
standing,0.01311462106,9.724530055,1.312391358,-0.01510772931,-0.01630402492,-0.01035308301,0.167742412902049,0.062857127213184,0.116788417240078,0.014137787393914,0.059084505913025,0.024068052844004,0.028137517086202,0.003951018441494,0.013639534401443,0.000199877032396,0.003490978838986,0.000579271167702
standing,-0.09757263374,9.69839361,1.476184693,-0.01236267382,0.00103149406,-0.01069487717,0.107801732669269,0.058372922987408,0.111853856288544,0.016590304065948,0.058346326505404,0.017135677503161,0.011621213566497,0.003407398138094,0.012511285166618,0.000275238189001,0.003404293816675,0.000293631443492
standing,-0.1736730955,9.69541816,1.495798947,0.00525054871,0.00494078701,-0.00252379258,0.091071382093109,0.061330745308617,0.102770060857839,0.018745749198022,0.050048972574864,0.011572350648313,0.008293996636349,0.00376146032011,0.010561685408724,0.000351403112995,0.0025048996558,0.000133919299528
standing,-0.1676983634,9.71853152,1.349310916,0.01412658637,0.01337889752,0.00197297143,0.109700617980339,0.075812914419993,0.112815130384955,0.011778969409825,0.048786672104906,0.014513011859201,0.012034225585268,0.005747597992853,0.012727253643774,0.000138744120358,0.002380139375072,0.000210627513225
standing,-0.17038818287,9.7314569,1.284302982,0.00177917302,0.03535003671,-0.00108183968,0.143456620819841,0.08263936617315,0.108665570136556,0.018140993492221,0.053840837084108,0.018412294054835,0.020579802057048,0.0068292648415,0.011808206133103,0.000329095644885,0.002898835737917,0.000339012572362
standing,-0.28909728984,9.72721987,1.308463744,-0.01218109314,-0.00476837127,-0.01862029059,0.175239167830077,0.089474665785023,0.167545590403954,0.022256708024142,0.078053786682479,0.0244917681489,0.030708765941778,0.008005715817342,0.02807152486381,0.000495361052072,0.006092393615474,0.000599846707059
standing,-0.426587525,9.704035035,1.408082268,-0.00700073722,-0.01833343475,-0.0126495249,0.158140086295642,0.076876711268799,0.171476606150148,0.022446965773695,0.066822767783615,0.024902340745145,0.025008286893593,0.005910028735506,0.029404226456773,0.000503866272445,0.004465282294263,0.000620126574587
standing,-0.5093530279,9.71710329,1.391062611,0.03131254972,-0.02208251953,0.00040284851,0.141413988848482,0.096461992661112,0.193116476258335,0.050784990343269,0.089679428060837,0.037703282644119,0.019997916242039,0.009304916028152,0.037293973402436,0.002579115244166,0.008042399817319,0.001421537522142
standing,-1.0203234863,9.65000064,0.03786925696,0.22354125151,-0.05492706288,-0.14064177425,0.81087251725198,0.47643846088213,1.48058113338177,0.241714261652464,0.167708040780796,0.2268938886578,0.657514239234562,0.226993607007733,2.19212049252606,0.058425784286196,0.028125986942533,0.051480836710258
standing,-1.8601422091,9.50282224,-1.67830688304,0.16288299214,-0.05583496071,-0.10076904318,0.733990192109856,0.503759980193603,0.92181380530261,0.296615190897821,0.154197370764992,0.265205949780654,0.538741602113464,0.253774117644659,0.849740691646479,0.087980571471351,0.023776829150836,0.070334195799059
standing,-2.222077635,9.441956145,-2.093634033,-0.04751434731,-0.03951416438,0.03758392618,0.211710538934402,0.232518037888986,0.173385877561492,0.09665220379006,0.06048551737387,0.098159643515942,0.044821352295895,0.054064637943744,0.030062662537769,0.009341648497475,0.003658497811985,0.009635315615177
standing,-1.46031128178,9.596585075,-1.00989868407,-0.1713195815,0.0283004719,0.11281128279,0.913049585715629,0.371836110536818,1.25482603723313,0.161124795467063,0.136275859080572,0.160515247125405,0.833659545975482,0.138262093099148,1.5745883837182,0.025961199714303,0.018571109768148,0.02576514455973
standing,-0.48562072961,9.727624475,0.76866699493,-0.16302032456,0.06580200183,0.11515045774,0.530834972716249,0.344807249256619,1.04726140043729,0.166986057937932,0.145774023245847,0.160005704838809,0.281785768258661,0.118892039139916,1.09675644084588,0.027884343545651,0.021250065853281,0.025601825580964
standing,-0.14553710983,9.686872485,1.521649781,-0.01432800305,0.02261809937,0.00200501443,0.271165714990077,0.145828996616842,0.172035852397382,0.036122629049036,0.086263432249799,0.031928555296066,0.07353084498608,0.021266096254275,0.029596334510094,0.001304844329414,0.007441379743516,0.001019432643294
standing,-0.03475463848,9.67373286,1.592013549,-0.01100617108,-0.00155334811,0.00010377966,0.094915296010885,0.046729299156709,0.109974822044378,0.008664236539891,0.023788743505197,0.010953680004532,0.009008913416834,0.002183627399677,0.012094461483693,7.5068994819186E-05,0.000565904317556,0.000119983105642
standing,-0.07000793424,9.6598553,1.683967284,-0.00458680615,0.00469512595,-0.00047299338,0.047239591759499,0.032506727620384,0.057076840249058,0.008358357759503,0.019130350890755,0.004877030743209,0.002231579029604,0.001056687340586,0.003257765692817,6.98621444358423E-05,0.000365970325203,2.37854288702071E-05
standing,-0.07695861794,9.65330931,1.6956073,0.00206755353,0.00218505173,-0.0011031664,0.046592298862407,0.029606730595669,0.042463033157586,0.003886522623296,0.011768301800727,0.003869645324865,0.002170842313284,0.000876558496565,0.001803109184942,1.5105058101395E-05,0.000138492927273,1.49741549402462E-05
standing,-0.09478759751,9.65657041,1.667161868,0.00252684247,0.00066830766,-0.00291896574,0.038619252140558,0.027280273105654,0.043070317861067,0.003565827156736,0.008286701322118,0.00393228997158,0.001491446635896,0.000744213300719,0.001855052280653,1.27151233117151E-05,6.86694188019924E-05,1.54629044205917E-05
standing,-0.11380676264,9.661307305,1.643429564,0.00416106007,0.00357357278,-0.00318600724,0.038416045731294,0.025913807676262,0.044749341069952,0.004579437406027,0.008619625805631,0.003816657159778,0.001475792569629,0.000671525428282,0.002002503526195,2.09712469557179E-05,7.42979490290975E-05,1.45668718752876E-05
standing,-0.13901489223,9.66813902,1.599654543,0.00483398091,-0.00152131643,-0.00156246518,0.037973146344882,0.027370423858363,0.067501179928604,0.007268324659758,0.015482550447342,0.003857969939835,0.00144195984333,0.000749140102186,0.004556409291754,5.282854335965E-05,0.000239709368354,1.48839320566692E-05
standing,-0.12804138128,9.67599426,1.569161989,0.00325317261,-0.0065841709,0.00077670568,0.048034788284469,0.03264545919671,0.060166859332995,0.009592180210551,0.014337001623031,0.004544962786292,0.002307340885534,0.001065726006164,0.003620050961996,9.20099211916889E-05,0.000205549615539,2.06566867287747E-05
standing,-0.09197876106,9.67682736,1.550595092,0.00218505264,-0.0033157344,0.00204775898,0.054947585709837,0.039836311694541,0.06348918255029,0.008835494940394,0.015551025622316,0.006430436482815,0.00301923717534,0.001586931729425,0.004030876300904,7.8065970841734E-05,0.000241834397906,4.13505133595182E-05
standing,-0.07843445286,9.67980284,1.537288821,0.00183257114,-0.00172424564,-0.00078273677,0.060520895097241,0.038632938705588,0.063294427147514,0.007336396653053,0.01679704281741,0.007159335615525,0.003662778743371,0.00149250395303,0.004006184507932,5.38227158509263E-05,0.00028214064741,5.12560864557304E-05
standing,-0.09126465149,9.688276955,1.499893189,0.00731200702,0.00197143357,-0.00315395143,0.056881769007809,0.033810035683651,0.092040705468539,0.008330943339829,0.012900834788337,0.005190448981097,0.003235535645458,0.00114311851293,0.008471491463146,6.94046169314373E-05,0.000166431538236,2.69407606253702E-05
standing,-0.10968872084,9.696608255,1.454166255,0.0015869058,0.0059234498,0.00022127544,0.063972783249726,0.036155388536842,0.086169109962281,0.013029609470743,0.019408875191965,0.006556898479522,0.004092516996716,0.00130721212025,0.007425115511692,0.00016977072296,0.000376704436217,4.29929176707639E-05
standing,-0.09664428759,9.69282349,1.475518184,-0.00625306416,-0.0042984139,-0.00139157319,0.088472451872312,0.056465670748658,0.094306823447457,0.011116791077302,0.026008706829379,0.010459205527502,0.007827374740299,0.003188371973096,0.00889377694875,0.000123583043856,0.000676452830937,0.000109394980267
standing,-0.10478515663,9.695346665,1.464401857,0.00533599377,-0.0076309281,-0.00526882805,0.084359464365508,0.056665445978031,0.096844370050486,0.013524601308546,0.021335774498124,0.009129272997355,0.007116519228035,0.003210972767889,0.009378832010475,0.000182914840555,0.000455215273435,8.33436254602286E-05
standing,-0.14139526364,9.707248545,1.401631472,0.00768583434,0.00175780036,-0.00301511989,0.066630684430443,0.034644367434328,0.078896911189756,0.008890087078426,0.017042118566933,0.007194801414871,0.004439648107669,0.001200232194925,0.006224722595284,7.90336482619941E-05,0.000290433805249,5.17651673994267E-05
standing,-0.17262573229,9.714746725,1.3562854,0.00416105173,0.00678863179,-0.00415801086,0.067936684541523,0.036142564826102,0.06009743227478,0.006738106064692,0.015560776349667,0.008049616101588,0.004615393106494,0.001306284992209,0.003611701366022,4.54020733390413E-05,0.000242137760604,6.47963193829395E-05
standing,-0.208759765,9.72114989,1.307154542,0.00452421975,0.00468444922,-0.00279080723,0.061108513449779,0.045740619251857,0.079658470365595,0.008572362087144,0.014788943986639,0.0079538173566,0.003734250416042,0.002092204249543,0.006345471900986,7.34853917531036E-05,0.00021871286424,6.3263210542152E-05
standing,-0.2042608634,9.721506925,1.298680423,-0.0024719368,-0.00270691348,0.00059514223,0.059384231476559,0.041505363188886,0.073941014182327,0.008656130563892,0.012221629830244,0.005664145640785,0.003526486948062,0.001722695173441,0.005467273578311,7.492859633915E-05,0.000149368235708,3.2082545840021E-05
standing,-0.1840277097,9.713485075,1.340622561,-0.00414887659,-0.00238649206,3.971962E-05,0.046286034183505,0.031201939238763,0.055293192535825,0.005503279369189,0.012070869584429,0.004562745337464,0.002142396960437,0.000973561012259,0.003057337140804,3.02860838153381E-05,0.000145705892524,2.08186450145504E-05
standing,-0.17671997045,9.70389219,1.381041259,-0.0037750387,-0.00202333054,0.00024264964,0.043556848982991,0.033929040219197,0.062402857021125,0.00515585686393,0.011055425335277,0.004635347435999,0.001897199093327,0.001151179770196,0.003894116564399,2.658286000133E-05,0.000122222429344,2.14864458524186E-05
standing,-0.17136413554,9.700678705,1.435123288,-0.00423432537,-0.00243989989,-8.845955E-05,0.049642171025324,0.034284261403674,0.060554950594074,0.005054266412172,0.009441461881839,0.004286243086837,0.002464345144108,0.001175410579995,0.003666902041451,2.55456089652116E-05,8.9141202466225E-05,1.83718797994618E-05
standing,-0.16810302752,9.698179315,1.452261961,0.00096739643,0.00018765737,-0.00196834164,0.054252731720446,0.032246395062762,0.053483620028161,0.0059417434092,0.010862060488783,0.006089677053056,0.002943358899131,0.001039829994544,0.002860497611317,3.53043147407668E-05,0.000117984358062,3.70841666105199E-05
standing,-0.16653198264,9.699393285,1.44269287,0.00359495704,0.00067899915,-0.00112454786,0.053745588220727,0.034692614056627,0.059001177434436,0.006454711181405,0.011530346196641,0.006835561700625,0.002888588253192,0.001203577470082,0.00348113893865,4.16632964353502E-05,0.000132948883414,4.67249037630559E-05
standing,-0.17821960451,9.70905761,1.397680055,0.00813445334,0.00289000685,-0.00179746082,0.05714894001565,0.038764261156483,0.082441340588095,0.008866662779003,0.012942449416552,0.006463700994808,0.003266001344912,0.001502667943008,0.006796574637962,7.86177088365532E-05,0.0001675069969,4.17794305502771E-05
standing,-0.2070697014,9.718650545,1.31215332,0.00680999346,0.00418241803,-0.0032073576,0.060207443929199,0.039761066039423,0.081373166857545,0.010492948918967,0.014898071653814,0.00560017315377,0.003624936304488,0.001580942372591,0.006621592284426,0.000110101977016,0.000221952539002,3.13619393522107E-05
standing,-0.2186621084,9.717650795,1.295157465,-0.00096588908,-0.00410616101,-0.00054774952,0.048313050961466,0.036262643951928,0.068013408480024,0.009277758328044,0.0173071089368,0.005234998275506,0.002334150893205,0.001314979346384,0.004625823733071,8.60767995935861E-05,0.00029953601975,2.7405206944552E-05
standing,-0.19433471665,9.714984735,1.29934692,0.00096738768,-0.00591125875,0.00040285768,0.047809271426129,0.037022011532211,0.068828887165953,0.008559450233442,0.014653736978135,0.005608086874998,0.002285726434297,0.001370629337891,0.004737415708503,7.32641882987646E-05,0.000214732007424,3.14506383975197E-05
standing,-0.1878363038,9.71924562,1.27149658,-0.00029298587,-0.0011902021,-0.00118864938,0.059283043840778,0.038415182291583,0.067913091453393,0.00881486106801,0.014408862391643,0.006336094285854,0.003514479287028,0.001475726230496,0.004612187990757,7.77017756483196E-05,0.000207615315421,4.01460907992306E-05
standing,-0.19088317875,9.71755552,1.297823482,-0.0028885035,-0.00127566789,-0.00247037271,0.058206028280812,0.036819528354764,0.069088272367389,0.007606674888814,0.014551382017237,0.005783862322473,0.003387941728227,0.001355677668267,0.004773189378711,5.78615028641205E-05,0.000211742718612,3.34530633653215E-05
standing,-0.2282550041,9.725267875,1.3176281714,0.01110380434,-0.01528932315,-0.0006866218,0.110791139956467,0.055124630441116,0.098824721420908,0.021241075394713,0.048768633277952,0.013909131005079,0.012274676692853,0.00303872488127,0.00976632556392,0.000451183283924,0.002378379591799,0.000193463925316
standing,-0.29119201695,9.656594203,0.70680114846,0.1751342758,-0.14603729027,-0.11581878508,1.06933736598789,0.525010968399833,1.36009232388115,0.282943788165072,0.309782158294784,0.269608913489411,1.14348240229793,0.275636516940131,1.84985112948044,0.080057187261201,0.095964985597774,0.072688966232941
standing,-2.46428039725,7.896928719,-2.74492737494,0.53532409782,0.04266662826,-0.47247314561,2.6464116780669,2.50518435672474,3.47740662328389,0.359752155730657,0.460224957943472,0.371965506593854,7.00349476980888,6.27594866117836,12.0923568236587,0.129421613552855,0.21180701191407,0.138358338095622
sit_down_chair_1,-5.088258675,4.0227081542,-6.883916629,0.41390075652,0.15296019667,-0.37221984386,1.21818664332922,2.86191718120444,2.02549422255034,0.378506253110487,0.28028693510077,0.37807566221562,1.48397869798571,8.19056995207318,4.10262684558481,0.14326698364374,0.078560765988183,0.142941206359779
sit_down_chair_1,-5.694182137,1.6203424135,-8.11085513,0.05192718358,-0.03168488396,-0.01617431056,0.338177793100937,0.524387018923395,0.324832172703184,0.098490812130761,0.069502781908394,0.086270699772835,0.11436421974662,0.274981745615365,0.105515940423071,0.009700440074177,0.004830636693006,0.007442633639295
sitting_chair_1,-5.747288208,1.2463146985,-8.127160664,0.04176940746,0.00135192869,0.00751647968,0.237930290784575,0.373277636357863,0.274467832933461,0.082884110555526,0.072894483797788,0.076893848614082,0.056610823272833,0.139336193804913,0.07533259131519,0.006869775782581,0.005313605768146,0.005912663954685
sitting_chair_1,-5.546099238,1.0304150377,-8.303260485,0.04255981409,0.03194274463,0.03967742957,0.259679307992538,0.280906738528252,0.271355765837394,0.062433069415948,0.063260611873422,0.081700254318654,0.067433342999483,0.07890859575058,0.073633951653199,0.003897888156697,0.0040019050146,0.006674931555733
sitting_chair_1,-5.354003289,1.0185369879,-8.440036603,0.02640991199,0.01671141274,0.0385665925,0.200522758778257,0.230067345973975,0.192844695800473,0.042691776446215,0.046021657592366,0.080934974195036,0.040209376788043,0.052930983683509,0.037189076698377,0.001822587776134,0.002117992967549,0.006550470047951
sitting_chair_1,-5.246196282,0.9977325436,-8.49471375,-0.01123046886,0.00242003567,-0.02024382815,0.111568623012388,0.140143676355847,0.082033002045601,0.050916322079426,0.021728890359568,0.075838067011431,0.01244755764088,0.019640250022532,0.006729413424614,0.002592471854096,0.000472144676258,0.00575141240803
sitting_chair_1,-5.224082625,1.0086108424,-8.50792483,0.00501556333,-0.00101928572,0.0122909587,0.076850477068337,0.131231285514488,0.087813550462065,0.066450385374442,0.01714297815994,0.079969539839065,0.005905995825631,0.017221650297785,0.007711219644754,0.004415653716412,0.000293881700192,0.006395127302072
sitting_chair_1,-5.254598991,0.9720483416,-8.502449975,0.0366104113,-0.0076950151,0.02650756829,0.119345568134485,0.170334864253182,0.110071876549935,0.047516366240204,0.016281289399102,0.064161174740679,0.014243364633343,0.02901396598015,0.012115818007224,0.002257805060673,0.000265080384497,0.004116656344104
sitting_chair_1,-5.252385253,0.8729534877,-8.518588875,-0.03514556967,0.00486601473,-0.04990539392,0.109604395549786,0.140937783702944,0.080901751762956,0.058828119333243,0.015601901172642,0.04916994341477,0.012013123523834,0.019863458875098,0.006545093438315,0.003460747624286,0.000243419320201,0.002417683335412
sitting_chair_1,-5.17652876848,0.9887347377,-8.4358888201,-0.02354583913,-0.00066681784,-0.0013381942,0.523054109978218,0.155942901257524,0.837365216835333,0.063417927719793,0.016855801454205,0.083343012056965,0.273585601965105,0.024318188452614,0.701180506365684,0.004021833556273,0.000284118042664,0.006946057658727
sitting_chair_1,-5.20578354048,1.0889245564,-8.4057295201,0.07407989333,-0.02099304635,0.10407409701,0.52804945965952,0.10398349597755,0.835970176272163,0.047300699847025,0.015085285825462,0.047619711135551,0.278836231846711,0.010812567435713,0.698846135616511,0.002237356206018,0.000227565848436,0.002267636888633
sitting_chair_1,-5.319107059,0.8681451393,-8.470862395,0.03367309565,-0.00678710937,0.01539917012,0.073655651286741,0.251807175174896,0.081797238128379,0.117584456340254,0.02726524815293,0.139289317338972,0.005425154966474,0.063406853469561,0.006690788165431,0.013826104372833,0.000743393756841,0.019401513924757
sitting_chair_1,-5.270666505,0.7800952132,-8.508543705,-0.06235046394,0.01672209857,-0.10471038555,0.11082573474472,0.174152667779601,0.08687028849557,0.097904644848343,0.017805330358978,0.088529366978426,0.012282343481707,0.030329151694752,0.007546447023304,0.00958531948288,0.000317029789192,0.007837448817601
sitting_chair_1,-5.192756974,0.9661212129,-8.53786988,0.31011199994,0.00175779109,0.18755798638,0.094248878701428,0.159273449695449,0.090179024232612,3.41738157240073,0.022471906440702,2.08980203608625,0.008882851136476,0.025368031777889,0.008132256411546,11.6784968113841,0.00050498657908,4.36727255003025
sitting_chair_1,-5.23548463,0.9934002683,-8.506567985,0.3832031255,-0.01518251063,0.26744232497,0.094205449271393,0.165929878038063,0.092351494666211,3.40955029222139,0.014323416960059,2.0797751106127,0.008874666672425,0.027532724425727,0.008528798567083,11.625033195187,0.000205160273412,4.32546451072406
sitting_chair_1,-5.047262739,0.8134501623,-8.38001556,0.00422515857,0.00029449218,-0.03120269465,2.22870910847394,0.710425574868708,1.21758528702593,0.072379450438776,0.019544527965461,0.10158333669632,4.96714429019468,0.504704497427534,1.48251393118201,0.005238784845819,0.000381988573393,0.010319174294358
sitting_chair_1,-4.986634679,0.7699369783,-8.415840105,-0.05490570257,0.01083679201,-0.06880035364,2.22295913481961,0.709109655990157,1.22097012357894,0.036594629519755,0.010850089058951,0.07267977663518,4.94154731507796,0.502836504218479,1.49076804267236,0.001339166909688,0.000117724432587,0.00528234993174
sitting_chair_1,-5.175213609,0.9581231661,-8.543249475,0.00639343094,-0.0068405151,0.03825683606,0.073174522064766,0.164649717963302,0.059738609012297,0.065242874517873,0.016456731770456,0.078616022382239,0.005354510679407,0.027109529625395,0.003568701406724,0.004256632675355,0.000270824020565,0.006180478975205
sitting_chair_1,-5.218774417,1.002088622,-8.515803795,0.05578308132,-0.01327057273,0.05928802653,0.080296031135704,0.119509898278995,0.057605075308504,0.020806904320021,0.012048521562568,0.061649414391438,0.006447452616146,0.014282615786656,0.003318344701298,0.000432927267382,0.000145166871844,0.003800650294807
sitting_chair_1,-5.233508926,0.8506970226,-8.523658995,-0.02870483371,0.00636138525,-0.06969756934,0.069462151172579,0.167551739154466,0.063036944376739,0.085805286816956,0.017235988662844,0.105664216094878,0.004824990445522,0.028073585293686,0.003973656356356,0.00736254724574,0.000297079305186,0.011164926562945
sitting_chair_1,-5.152481078,0.9146099842,-8.563863485,-0.05138092008,0.00730132226,-0.05702972408,0.117062358542895,0.223601864512302,0.077035311800821,0.086012424749045,0.024538902672609,0.11918925216198,0.013703595787625,0.049997793813378,0.00593443926425,0.00739813721121,0.000602157744376,0.014206077830932
sitting_chair_1,-5.133485704,1.0840448004,-8.55829342,0.03592681909,-0.0137405474,0.07960357674,0.105132016163048,0.137436920444263,0.078582796719776,0.067606805790969,0.023368395470177,0.064891341370189,0.011052740822508,0.018888907101203,0.006175255940302,0.004570680189258,0.000546081906851,0.004210886184822
sitting_chair_1,-5.241602169,0.7645989983,-8.53834594,0.04806060613,-0.00635986238,-0.03491973873,0.161783125353032,0.559832660563116,0.122497902601552,0.06609987855461,0.056696032690005,0.181249676512639,0.026173779648995,0.313412607833177,0.015005736141779,0.004369193944934,0.003214440122786,0.032851445235936
stand_up_chair_1,-5.101564936,1.91969787253,-8.174672874,-0.40734100624,-0.07942962647,0.06473541412,0.573069343866312,2.45798877238817,1.0610457855541,0.48805544443282,0.301171781605846,0.331081378975736,0.328408472879366,6.04170880518628,1.12581815904211,0.238198116840517,0.090704442035639,0.109614879504475
stand_up_chair_1,-3.35484862604,6.22840759383,-4.7246344052,-0.63898315475,-0.13685150199,0.40322113159,1.97407086516862,3.47794809969934,3.35159909978107,0.41442430460078,0.40492992128341,0.37804293931138,3.89695578070758,12.0961229842022,11.2332165256533,0.17174750424384,0.163968241150589,0.142916463963188
stand_up_chair_1,-0.90697021498,9.397467054,-0.1286377006,-0.28138885434,-0.00790863017,0.26133270243,1.43332942310712,0.670491264771437,1.73314699636538,0.346845138698195,0.355121808948912,0.394788164147041,2.05443323514459,0.449558536134802,3.00379851101032,0.12030155023857,0.126111499191148,0.155857694550591
standing,0.01268615286,9.691823715,1.5376934776,-0.06669769406,0.05219421022,0.0149826145,0.187957529897172,0.11830460003393,0.23944476788624,0.115130638086586,0.187445199606946,0.062662878602184,0.035328033045046,0.013995978389188,0.057333796868095,0.013255063826225,0.035135702855688,0.003926636354712
standing,0.04053649448,9.66085506,1.622648928,0.00642547481,0.01195829685,-0.00306851872,0.067054910811014,0.035618905094808,0.098068352184319,0.016986262417766,0.023833991370098,0.011177214655423,0.004496361063873,0.001268706400153,0.009617401700148,0.000288533110925,0.00056805914463,0.000124930127453
standing,-0.00997497555,9.68058835,1.508748169,0.01060180133,0.00779264888,-0.00600583097,0.079382684306728,0.038894969558181,0.079296340212409,0.010330720838582,0.016564784876042,0.009402250462252,0.006301610567742,0.001512818656932,0.006287909571082,0.000106723793045,0.00027439209799,8.84023137549241E-05
standing,-0.06674682919,9.688229335,1.46842468,-0.00161743936,0.00296476322,-0.00278011034,0.047624792376178,0.032816364190786,0.043600225798676,0.00792062571261,0.010309702365485,0.005406262317045,0.002268120848874,0.001076913758702,0.001900979689696,6.27363116792653E-05,0.000106289962865,2.92276722406972E-05
standing,-0.06991272428,9.67680355,1.524934694,-0.00566559725,-0.00250399256,-0.00359188911,0.04660197088813,0.035096862777184,0.068885916192923,0.007273030842684,0.016094749062084,0.006137710848317,0.002171743690658,0.001231789776801,0.004745269449738,5.28969776386301E-05,0.000259040947371,3.76714944575479E-05
standing,-0.08926513804,9.676018075,1.547167354,0.00355223728,-0.00413819141,-0.00529020959,0.056396122043071,0.038505994964209,0.067388689626588,0.010970608828485,0.023276763504491,0.007596683407015,0.003180522581497,0.001482711648184,0.004541235489589,0.000120354258068,0.000541807719244,5.77095987864192E-05
standing,-0.11225952151,9.69020513,1.474066158,0.0068420322,-0.00242919878,-0.00423275978,0.054243995882496,0.035344969693786,0.075244569037943,0.008480328127543,0.021811540945266,0.006707914254284,0.0029424110893,0.001249266882655,0.005661745169706,7.19159651507945E-05,0.000475743318407,4.49961136428322E-05
standing,-0.13968139693,9.69836978,1.432885746,0.00264433582,0.00047606299,-0.00467068544,0.054013277307104,0.031357018882599,0.050353840531954,0.00671891608046,0.014236293272971,0.006219732052815,0.002917434125454,0.000983262633204,0.002535509256317,4.51438332962647E-05,0.000202672046154,3.8685066808818E-05
standing,-0.15596313499,9.6975366,1.426101688,-0.00042115675,-0.00108338919,-0.00419003247,0.046401203782155,0.027117829699314,0.052243969177321,0.006442550522969,0.01023881308051,0.005746344223107,0.002153071712433,0.000735376687601,0.002729432315401,4.15064572410045E-05,0.000104833293298,3.30204719304399E-05
standing,-0.16265197776,9.694299255,1.447858275,-0.00155336188,-0.00332641764,-0.0034957599,0.042696300224603,0.030189992815576,0.05804576481516,0.005770214710887,0.013212291960418,0.004870557667207,0.001822974052869,0.000911435666205,0.003369310812977,3.32953778097404E-05,0.000174564658847,2.37223319895921E-05
standing,-0.17664855931,9.69437069,1.468020016,0.00183256351,-0.00125427842,-0.00383755943,0.040840123361374,0.030240034715002,0.048757149978739,0.005759499871474,0.013778122150408,0.004861369161801,0.001667915676172,0.000914459699565,0.002377259674049,3.31718387695066E-05,0.000189836649992,2.36329101273135E-05
standing,-0.1994763177,9.696417895,1.433814087,0.00469511767,-0.00203402144,-0.00205379472,0.049087015200407,0.028818060002445,0.051373580225253,0.00576278444726,0.010913283867186,0.004004257266729,0.002409535061285,0.000830480582305,0.002639244745161,3.3209684585581E-05,0.000119099764766,1.60340762581491E-05
standing,-0.19526306136,9.70108341,1.379398806,0.00421447226,-0.00609285978,-0.00091091327,0.062398880054643,0.041669695876334,0.062472543393414,0.007403578564268,0.017732054108807,0.005763977255409,0.003893620232074,0.001736363554426,0.003902818678042,5.48129755572925E-05,0.000314425742918,3.32234338008701E-05
standing,-0.15824829127,9.70793886,1.371567383,0.00128783354,-0.00409547988,-0.00024866148,0.053370711727362,0.040412758838326,0.063348486079389,0.00829539749389,0.018133301530954,0.005418538511581,0.002848432870285,0.001633191076925,0.004013030688551,6.88136195816362E-05,0.000328816624413,2.93605596014864E-05
standing,-0.16557983432,9.711604655,1.360308229,0.00415038065,0.00219572367,-0.00400842565,0.054962418818521,0.031375094181974,0.063793175679497,0.007837262679006,0.012323679905011,0.00576920737484,0.003020867482383,0.000984396534928,0.004069569263275,6.14226862997408E-05,0.000151873086401,3.3283753733905E-05
standing,-0.20452270441,9.71086674,1.337528078,-0.00043182905,0.0017578086,-0.00525814196,0.059588929810533,0.032953332449583,0.061624865625413,0.011080118884572,0.015375614548477,0.005409601807865,0.003550840555965,0.001085922119533,0.00379762406335,0.000122769034496,0.000236409522743,2.92637917196551E-05
standing,-0.23108764723,9.728172005,1.3136529544,0.02524566481,-0.02625885012,0.00872347651,0.124128133938346,0.061462010464274,0.135829185332046,0.045304688935358,0.052505280890395,0.025036395592845,0.015407793635016,0.003777578730311,0.018449567587968,0.00205251483953,0.002756804521379,0.000626821104281
standing,-0.46188842626,9.72876704,0.1858331308,0.16572418216,-0.06648406914,-0.07074431676,0.565784422303788,0.144898254666097,1.30734081223203,0.161193928004519,0.08809121379654,0.132370303424594,0.320112012521631,0.020995504205281,1.70913999932751,0.025983482425526,0.007760061948148,0.017521897228719
standing,-1.04786437633,9.6591174,-1.4324145476,0.13751525686,-0.03316955446,-0.07527313213,0.627197727456876,0.174948749121527,0.88331604053137,0.181600813288541,0.099157935464434,0.133296127941014,0.393376989327069,0.030607064819187,0.780247227460017,0.03297885538706,0.009832296165569,0.017767857724067
standing,-1.11927551508,9.672518917,-1.7137982146,-0.00235443337,-0.0268997187,0.00160980479,0.690910039249076,0.542957844744641,0.714938461680881,0.19378872061153,0.122027656659911,0.236336103416372,0.47735668233516,0.294803221169745,0.511137003990624,0.037554068236254,0.014890748989909,0.055854753778034
sit_down_chair_1,-2.45961486308,8.0222076369,-3.445827643,0.50731811217,0.11425170994,-0.33927917225,2.00544081046109,2.89485437806777,2.77489371492817,0.672440758269181,0.337666155792687,0.527024847666212,4.02179284426285,8.38018187021812,7.70003512914785,0.452176573381631,0.114018432767811,0.277755190057594
sit_down_chair_1,-4.611184679,3.6983587606,-6.9983172574,0.48383025766,0.12465515278,-0.35122070309,1.11978991758231,3.50120856232262,2.43983931357751,0.698141743027731,0.326610433226528,0.491647383861828,1.253929459519,12.2584613968812,5.95281587607837,0.487401893357798,0.10667437509242,0.241717150058179
sit_down_chair_1,-5.086592396,1.1774981689,-8.572575638,-0.02521209803,-0.03524169871,0.00548706201,0.286304856135796,0.577118898763838,0.42741244146372,0.228970067688097,0.100288182698347,0.175156555460128,0.081970470646939,0.333066223310385,0.182681395117978,0.052427291897092,0.010057719588937,0.030679818920657
sitting_chair_1,-5.139436645,1.2042535403,-8.542582949,0.05778045669,-0.00408477786,0.06458587806,0.280330624963827,0.40711301275599,0.291291492901961,0.097752153335323,0.078153781343069,0.075398064020356,0.07858525929261,0.165741005155259,0.084850733837053,0.009555483481692,0.00610801353822,0.005684868058018
sitting_chair_1,-5.038056647,0.9723339859,-8.632703805,0.07959136968,0.0180572516,0.03558654737,0.289482483156853,0.362752892092815,0.307953646249445,0.066994911169785,0.072379183473483,0.145019502772045,0.083800108054658,0.131589660721701,0.094835448238329,0.004488318122647,0.005238746200288,0.021030656184251
sitting_chair_1,-4.995209955,0.48680969479,-8.674526958,-0.01586608894,-0.00985259934,-0.10849151679,0.236715621173391,0.399429286719781,0.294327345342708,0.101223692672714,0.069067563561911,0.205755472559645,0.056034285307504,0.159543755089473,0.086628586216486,0.0102462359583,0.004770328336379,0.042335314488243
sitting_chair_1,-5.052981558,0.18105102553,-8.659744905,-0.04641418476,0.00245208761,-0.09023742427,0.247605156359704,0.23773316516193,0.27275920788353,0.100840055737159,0.093653090736482,0.194438852190312,0.061308313455914,0.056517057817909,0.074397585485251,0.010168716841073,0.008770901404496,0.037806467241086
sitting_chair_1,-4.812754515,0.56645690724,-8.78209598,-0.01328125002,0.02079162618,0.05879669607,0.254237293678738,0.446564531623932,0.205924355502882,0.104744857762301,0.084080973626435,0.11261603197952,0.064636601497089,0.199419880904501,0.042404840189277,0.010971485227645,0.007069610125969,0.012682370658812
sitting_chair_1,-4.722847892,0.8422467037,-8.817753905,0.02553405766,-0.00584716784,0.06371002654,0.118693270760494,0.252123318139398,0.095626002150257,0.098522599278309,0.041763367567453,0.094689481420183,0.014088092523824,0.06356616754962,0.009144332287241,0.009706702568554,0.001744178870574,0.008966097891623
sitting_chair_1,-4.678287348,0.5881182878,-8.854697265,-0.00508880625,0.01326141421,-0.05812988011,0.132977630737601,0.213104997609037,0.090979334199649,0.088001991056256,0.033217398641515,0.118641797968547,0.017683050276586,0.045413740005948,0.008277239251411,0.007744350429865,0.001103395572509,0.01407587622521
sitting_chair_1,-4.712731329,0.5739788823,-8.8413196,-0.04060363839,-0.01583404498,-0.06212463097,0.260292865641591,0.200877382865631,0.17019156351634,0.063573002772653,0.070734863031099,0.100464322275499,0.067752375903912,0.040351722946945,0.028965168292136,0.004041526681532,0.005003420848028,0.010093080050275
sitting_chair_1,-4.868502821,0.7013525406,-8.744509895,0.00049743405,-0.0116790772,-0.00135955495,0.268228183303812,0.211844760167139,0.198460052735606,0.072198885481979,0.086066011967497,0.069236137236484,0.071946358318463,0.044878202410273,0.03938639253182,0.00521267906484,0.007407358415989,0.004793642699429
sitting_chair_1,-4.752126483,0.7549822996,-8.805376,0.03984679999,0.01532286302,0.06416931163,0.228574913214916,0.210370659515333,0.177084647997373,0.081797309095025,0.06018047705322,0.109337438877079,0.052246490951206,0.044255814384916,0.031358972556354,0.006690799775187,0.003621689818353,0.011954675540199
sitting_chair_1,-4.653602925,0.7145635979,-8.87228823,0.06721191417,-0.01413575921,0.10413818623,0.081614786876423,0.151012048004501,0.078739853775345,0.05662517320232,0.021597751510289,0.07916642520424,0.006660973436884,0.022804638642514,0.006199964572563,0.003206410240193,0.0004664628703,0.006267322879618
sitting_chair_1,-4.693140882,0.4679333509,-8.860981445,0.01447906152,-0.00302734775,-0.03655395244,0.041852620182759,0.158608452388393,0.037779081884154,0.060708058210399,0.016651776960719,0.108062820662887,0.001751641816162,0.025156641169041,0.00142725902801,0.003685468331677,0.00027728167595,0.011677573209619
sitting_chair_1,-4.616802368,0.34765319837,-8.89982911,-0.08438568439,0.01799316397,-0.16094665549,0.113077280545827,0.152841477616127,0.107914049242333,0.06016910622235,0.025807312902347,0.047007299483491,0.01278647137564,0.023360517279881,0.011645442023877,0.003620321343596,0.00066601739924,0.002209686204731
sitting_chair_1,-4.442535401,0.51654052727,-8.97076415,-0.08208923372,0.01440429688,-0.09829101611,0.147552904160347,0.239420527334088,0.202585366821233,0.074429295839264,0.063763506138989,0.12169028935455,0.021771859526153,0.057322188908933,0.041040830850094,0.005539720079129,0.004065784715137,0.014808526523194
sitting_chair_1,-4.396213371,0.7736206047,-8.984522685,0.03776397671,-0.01516113277,0.09911804209,0.101804126561388,0.166491059824712,0.178375791751836,0.082899385749746,0.061421637174059,0.124922631416097,0.010364080184927,0.027719273001556,0.031817923083094,0.006872308157685,0.003772617513142,0.015605663839922
sitting_chair_1,-4.550104356,0.7333923326,-8.91599182,0.09755706708,-0.02908936419,0.14044342091,0.123543410350845,0.185861313869692,0.068381497352828,0.036025798221872,0.015216299064607,0.0893067620618,0.015262974241117,0.034544427993368,0.004676029180215,0.001297858137523,0.000231535757224,0.007975697749963
sitting_chair_1,-4.657958978,0.4451055905,-8.876168215,0.00227050678,-0.00548401749,-0.06382293676,0.07655365973565,0.18842728667339,0.066660273138469,0.095705750035628,0.02621423068206,0.16290042927173,0.005860462818922,0.035504842363096,0.004443592014895,0.009159590589882,0.000687185890252,0.026536549856914
sitting_chair_1,-4.589428099,0.46129211445,-8.904161335,-0.0914886473,0.00800628713,-0.12884979245,0.104455032141201,0.24815168559506,0.077675476718133,0.060688685048431,0.017889159494118,0.120533049673186,0.010910853739619,0.06157925906367,0.006033479683389,0.003683116492908,0.000320022027406,0.014528216063519
sitting_chair_1,-4.568123777,0.70547058175,-8.90049557,0.01461792021,-0.01888885453,0.06411590602,0.093339885070187,0.222021151909828,0.074171664161082,0.129463641857882,0.026359023662909,0.142180481388463,0.008712334144916,0.049293391895367,0.005501435764424,0.016760834563106,0.000694798128462,0.020215289287855
sitting_chair_1,-4.740534043,0.5777874759,-8.832583615,0.09429931647,-0.02790374718,0.11456298841,0.150844245112588,0.25429737664564,0.100746640640258,0.061110321290356,0.02456139428112,0.093592679157548,0.022753986283587,0.064667155768855,0.010149885600297,0.003734471368211,0.000603262089033,0.008759589591888
sitting_chair_1,-4.948459461,0.4942602542,-8.71773071,-0.03841400332,-0.01805572455,-0.0445007322,0.173039891417628,0.262296150189092,0.220665708895948,0.123268346178517,0.054121989585827,0.118957172602453,0.029942804021824,0.068799270404019,0.048693355082551,0.015195085169587,0.002929189756728,0.01415080891357
sitting_chair_1,-5.110586549,0.665527955,-8.603139635,-0.06026764086,-0.01069641519,-0.08168182348,0.201199136440048,0.238812048283204,0.239832354612633,0.105294304435251,0.064918123233649,0.073975440763557,0.040481092504221,0.057031194405219,0.05751955831904,0.011086890546503,0.004214362724179,0.005472365836163
sitting_chair_1,-5.095518789,0.6223004158,-8.617826535,0.05727844233,0.01119994259,0.05557098344,0.19163864991042,0.206985821749718,0.199090862491837,0.07552916948408,0.054168709587201,0.094950924379822,0.036725372139489,0.042843130405406,0.039637171527744,0.005704655442955,0.002934249098343,0.009015678040583
sitting_chair_1,-4.93867614,0.28466858032,-8.717825945,0.03376922603,-0.01675263271,-0.04450073319,0.23726955575949,0.397960243061052,0.230704064305925,0.106905999139977,0.092298681876219,0.200382516276703,0.056296842090306,0.158372355057212,0.053224365287272,0.011428892652117,0.008519046676087,0.040153152829383
stand_up_chair_1,-4.969025894,1.32793762154,-8.352153309,-0.44545135792,-0.13016510233,0.10492859101,0.492675696753138,2.58510782026148,1.19802052692968,0.512589822393777,0.302176700617742,0.435434457391371,0.24272934217119,6.68278244237705,1.43525318294487,0.262748326021684,0.091310758396225,0.189603166683718
stand_up_chair_1,-3.13866334494,5.91884033382,-4.65960265,-0.69396973052,-0.0345153791,0.44175873144,2.31896738554426,4.04773921381886,3.65405025354492,0.406302958621881,0.482365694558963,0.40007371127688,5.37760973521798,16.3841927430869,13.3520832554317,0.165082094184894,0.23267666328735,0.160058974454856
stand_up_chair_1,-0.65029480205,9.490325315,-0.1387542744,-0.30516510103,0.06071777373,0.23129730326,1.33981956216249,0.781996534110725,1.6835132008733,0.322473846913155,0.365242254428145,0.367651023396844,1.79511645915329,0.611518579361186,2.83421669751468,0.103989381942969,0.133401904419754,0.135167275004747
standing,0.05165283183,9.723625485,1.3265307676,-0.05295105037,-0.00153198676,0.00360718789,0.304127367863018,0.143715559911757,0.32863005953607,0.04339608025482,0.070952898905028,0.033314922157799,0.092493455883287,0.02065416216075,0.107997716030681,0.001883219781483,0.005034313863027,0.00110988403838
standing,0.12632507338,9.663830575,1.629052131,-0.00770568968,0.01131743929,-0.01304472605,0.182429565222155,0.090226289900304,0.116826269764979,0.024215132914025,0.056996178529285,0.019760886408075,0.033280546267145,0.008140783389174,0.0136483773072,0.000586372662044,0.003248564366942,0.000390492631633
standing,-0.0393725585,9.663568775,1.601820679,0.00940551346,0.00966185197,-0.01596068796,0.165524360577201,0.080699135629324,0.143593953320993,0.019602101366939,0.054000152351677,0.015216032943575,0.027398313944491,0.00651235049132,0.020619223430352,0.000384242378,0.002916016454004,0.00023152765854
standing,-0.162770996,9.672066705,1.571161494,-0.00489654889,0.01022795321,-0.00224608572,0.140313952466853,0.086459002695944,0.148061298943087,0.030038968597432,0.026182969943514,0.017137398366685,0.01968800525687,0.007475159147177,0.021922148244714,0.000902339634397,0.000685547915063,0.000293690422778
standing,-0.12558959997,9.655523085,1.673969724,0.00717315687,-0.03452607009,-0.00554656129,0.206613113232115,0.107366598866838,0.160495876508153,0.048182942826512,0.100660185563369,0.02505475672707,0.042688978559467,0.011527586552233,0.025758926376121,0.002321595979423,0.010132472957652,0.000627740834653
standing,-0.31261536036,9.688467405,1.08911254785,0.15365447645,-0.12171631599,-0.08385009464,0.565075188979626,0.224540889941027,0.908599503337108,0.19391301487827,0.204720191410242,0.128396899632455,0.31930996920036,0.050418611255509,0.82555305746444,0.03760225733918,0.041910356771046,0.016485763835227
standing,-0.81939636535,9.7685431,-0.17229370255,0.11809692003,-0.08585968836,-0.04644470235,0.590163092952552,0.362119575335756,0.94406428156691,0.21929265810969,0.214443401390217,0.160032868027624,0.348292476283322,0.131130586841348,0.891257367730446,0.048089269900814,0.045985972399806,0.025610518849147
standing,-1.6188201919,9.496442888,-1.3600750719,9.1551150000011E-05,0.00307158527,-0.02564849798,0.820299507225044,0.698488625868744,0.866540150669927,0.343860655078265,0.208017045069361,0.363159275519901,0.67289128155365,0.487886360468006,0.75089183272306,0.118240150110854,0.043271091039389,0.13188465939614
standing,-1.25612304937,9.546930558,-0.5448455827,-0.1215988178,0.03321380616,0.05526123269,1.12832895771765,0.815456835525618,1.69527216566258,0.403002844456022,0.330493358192455,0.444386615765379,1.27312623682419,0.664969850605455,2.87394771567029,0.162411292639645,0.109225859809327,0.197479464271407
standing,-0.13206420912,9.763496715,1.2893969698,-0.13489685103,0.03056488086,0.11544953092,0.425236997314732,0.508760239466461,0.917948843936604,0.209032574053286,0.272709216794448,0.243964722004067,0.180826503885249,0.258836981261971,0.842630080084548,0.043694617015343,0.074370316924642,0.059518785582522
standing,0.16119750988,9.643335575,1.650975339,0.00817718151,0.00838012347,0.00330811362,0.221391780568905,0.121022227969572,0.20846542604011,0.027025533986437,0.037046079449925,0.026064442236819,0.04901432050347,0.014646379662719,0.043457833854085,0.000730379487252,0.00137241200261,0.000679355149116
standing,0.21701720992,9.663592515,1.567067261,-0.00019684368,0.00055083495,-0.00391233959,0.182486061871666,0.086673076254256,0.153219999440961,0.018846787413475,0.026203097139717,0.021454558959531,0.03330116277743,0.007512222147376,0.023476368228688,0.000355201395809,0.000686602299713,0.000460298100148
standing,0.19373717953,9.648096275,1.642120364,-0.00527038932,0.00452422316,0.00148164796,0.098690949487377,0.039945692472758,0.091636788320555,0.009302423341483,0.019295704543928,0.009755064425556,0.00973990351072,0.001595658347128,0.008397300973706,8.65350800241653E-05,0.000372324213847,9.51612819467468E-05
standing,0.19142822112,9.634337735,1.684371951,0.00453490908,0.00574187889,-0.00325011371,0.099851567449091,0.053113357901644,0.061633883214558,0.011176659195557,0.018725230967488,0.012200133920475,0.00997033552204,0.002821028787588,0.003798735560106,0.000124917710774,0.000350634274786,0.000148843267678
standing,0.13846496596,9.65804626,1.594727175,0.0190826403,-0.02451782129,-0.01790466316,0.129382439547641,0.093037564073006,0.143396260621134,0.022675523946048,0.037509106943839,0.018829184605236,0.016739815663299,0.008655988328639,0.020562487560124,0.000514179386228,0.001406933103724,0.000354538192898
standing,0.02401672398,9.70529663,1.3352429213,0.02551269053,-0.02854461647,-0.01876983642,0.146946684110579,0.097174375408169,0.217438567690804,0.028648076138021,0.051242033133068,0.024649705297023,0.021593327971094,0.009442859235968,0.047279530719428,0.00082071226641,0.00262574595961,0.00060760797123
standing,-0.05920104995,9.73276609,1.1833514413,0.00373382041,0.00650024435,-0.00753325876,0.142595670521997,0.089658774297146,0.124224460151978,0.033571196317479,0.052750515472439,0.023646808102623,0.020333525251618,0.008038695808467,0.015431716500051,0.001127025222187,0.002782616882608,0.000559171533442
standing,-0.06060547053,9.728481435,1.271496586,-0.00914764644,0.01674346483,-0.00216063759,0.135705782632281,0.093621426710267,0.138268804513107,0.024908060635585,0.044122679605618,0.021143450415003,0.01841605943984,0.008764971539266,0.019118262301484,0.000620411484626,0.00194681085558,0.000447045495452
standing,-0.07295959831,9.715532205,1.3629980507,0.0091171236,-0.00935058979,0.00116119547,0.282500725425345,0.172462942734086,0.181272449476579,0.058998237409077,0.10013765814723,0.055044558707572,0.079806659865846,0.029743466616501,0.032859700939239,0.003480792017378,0.010027550579212,0.003029903443311
standing,-0.48388306077,9.607296743,0.1067810024,0.18025054966,-0.02362060461,-0.0716415401,0.726067483314087,0.69504216510658,1.77567772453107,0.530239181667571,0.191039016241347,0.258274569564973,0.527173990326053,0.483083611276042,3.15303138139584,0.281153589775495,0.036495905726462,0.066705753283972
standing,-1.27250000014,9.541217663,-1.7840429783,0.18574066279,-0.006156921,-0.08503570525,0.711287327336127,0.792392376821822,1.37143876750796,0.539648923523957,0.194802168586106,0.271368581759023,0.50592966202897,0.627885678845337,1.88084429302375,0.291220960660566,0.03794788488585,0.073640907165903
standing,-1.531531979,9.51991332,-2.501391613,0.0185913078,0.0008499151,7.62933000000063E-06,0.241384098259678,0.433430215035949,0.223383012290141,0.125079149478386,0.104166895615232,0.112988050992065,0.058266282892638,0.187861751306109,0.049899970179817,0.015644793634236,0.010850742142115,0.012766299666986
standing,-1.381687619,9.474924295,-2.582752686,0.00362700945,-0.00454406984,0.00562592013,0.114891111695194,0.076222781340213,0.116866700880806,0.026992782557755,0.029910778874196,0.032398212325249,0.013199967546558,0.005809912395238,0.013657825774764,0.00072861031021,0.000894654692861,0.001049644161872
standing,-1.458811643,9.443479615,-2.547951653,-0.03891602193,-0.02481690141,-0.02968596265,0.14151492769397,0.154090457480205,0.177304442057879,0.111593125804734,0.045466047254854,0.055334414252485,0.02002647476023,0.023743869086459,0.031436865173456,0.012453025726871,0.002067161452981,0.003061897400666
standing,-1.00842162941,9.597203995,-1.07109801986,-0.19443359645,0.07049102419,0.08746491157,0.68995127765822,0.445263235722333,1.62251298344031,0.197959328456307,0.214835431217808,0.173963482755067,0.47603276554221,0.198259349085922,2.63254838143239,0.039187895722872,0.046154262506542,0.030263293332273
standing,-0.18226623394,9.726029675,1.02650879014,-0.16060638475,0.09203491224,0.11188202159,0.572981219320183,0.398898547076521,0.932340630477786,0.19685756793293,0.209258897326332,0.149546079001836,0.328307477693643,0.15912005085976,0.869259051239714,0.038752902052468,0.043789286110233,0.022364029744824
standing,0.08959594498,9.6500482,1.662139286,-0.0052383457,0.00338134306,-0.00478819311,0.234766593832545,0.131648717790715,0.192652289046473,0.036272320999538,0.06292220483307,0.029450806007004,0.055115353579735,0.017331384895939,0.037114904474846,0.001315681270694,0.003959203861055,0.000867349974462
standing,0.05465209627,9.64143126,1.684729006,-0.00128632548,0.00399016211,-0.00453181664,0.063502216264077,0.04139689625208,0.067854915196101,0.008659454473632,0.017170154724411,0.009005877512044,0.00403253147045,0.001713703019305,0.00460428951627,7.49861517809086E-05,0.00029481421326,8.11058297619482E-05
standing,0.04643981928,9.639717415,1.697630618,0.00130918685,0.00011290086,-0.00294032721,0.052333375828889,0.033792786620387,0.060259298770587,0.007880986123499,0.011884317285573,0.005915155494041,0.002738782225648,0.001141952427571,0.003631183088323,6.21099422787848E-05,0.000141236997344,3.49890645186784E-05
standing,0.04382140977,9.638241565,1.699820561,0.00139463621,-0.00437317626,-0.00611265248,0.048742575363896,0.035188084904851,0.062411328864933,0.008948068209548,0.014556369309153,0.007514916798172,0.002375838653105,0.001238201319271,0.003895173970687,8.00679246827273E-05,0.000211887887464,5.64739744834474E-05
standing,0.04862975909,9.64902465,1.732693478,0.04313659085,-0.00851745933,-0.00877226941,0.124887993083568,0.070588946421887,0.110405153786174,0.084508157986407,0.035970555497897,0.012596700145037,0.015597010816441,0.004982799356952,0.012189297982549,0.007141628766256,0.001293880862827,0.000158676854544
sit_down_chair_1,-1.12989196596,8.930985724,-0.68700134615,0.4434234612,-0.03343658755,-0.34052887027,1.80650120092341,1.43983831389542,3.11841940948536,0.427175393154528,0.251607718336533,0.421110094383914,3.26344658893771,2.07313437016121,9.72453961345504,0.182478816516725,0.063306443926516,0.177333711592029
sit_down_chair_1,-4.0379675168,5.488635878,-5.54636229015,0.5746841431,0.01285553058,-0.43890228331,2.22987376909563,3.12045592031181,3.110786293217,0.368702999305177,0.294437459712317,0.4156953035883,4.97233702610077,9.73724515060902,9.67699136206678,0.135941901696634,0.086693417681842,0.172802585425369
sit_down_chair_1,-5.775638407,2.297605597,-7.970603639,0.1725280769,0.03058624302,-0.11451568597,0.479959096588052,1.05701652240493,0.616424505915568,0.272055460672195,0.176331506028663,0.24764892658745,0.230360734397619,1.11728392863701,0.379979171493252,0.07401417368156,0.031092800018336,0.061329990839916
sitting_chair_1,-5.866473371,1.840145878,-7.916378802,0.02482909954,-0.03072357214,0.00430145277,0.331749822269103,0.334893049962206,0.531145926505081,0.105556278348447,0.094362499282042,0.051398759439792,0.110057944575582,0.112153354912988,0.282115995242941,0.011142127898775,0.008904281270753,0.00264183247195
sitting_chair_1,-5.925720823,1.693086552,-7.914474476,0.04553985404,-0.01645355243,0.03348236088,0.117576891834131,0.251977721803846,0.168403464944986,0.07101424946239,0.044026039826296,0.044993886009788,0.013824325493375,0.063492772285457,0.028359727005477,0.005043023626707,0.001938292182787,0.002024449778262
sitting_chair_1,-5.820413213,1.4145593282,-8.043514391,0.04917144624,0.02706146257,0.02723388667,0.277904140460753,0.371171934368617,0.22637426955251,0.080686988805382,0.073679445559276,0.054104468571269,0.07723071128523,0.137768604862941,0.051245309915432,0.00651039016248,0.005428660697922,0.002927293519379
sitting_chair_1,-5.56292846,1.2716894512,-8.255319799,0.03548888891,0.02959289142,0.00021057141,0.320049040623308,0.338553512199984,0.234203819164909,0.078287809078018,0.071644720639814,0.052454526503469,0.1024313884039,0.114618480622945,0.05485142891143,0.006128981050236,0.005132965995557,0.002751477350703
sitting_chair_1,-5.32508177,1.301539305,-8.419946235,-0.00569763317,0.00614776181,-0.00044097902,0.13164801666287,0.14485455150786,0.055616477401057,0.058409002411063,0.031856280887655,0.051118093200042,0.017331200291267,0.020982841092543,0.003093192558502,0.003411611562656,0.001014822631993,0.002613059452408
sitting_chair_1,-5.34391051,1.25640747,-8.406259125,0.00363769527,-0.00764160589,0.00308380121,0.104877052099843,0.153800571221377,0.057645013924803,0.065972308369495,0.028009454821274,0.048718719348623,0.010999196057153,0.023654615708022,0.003322947630391,0.0043523454716,0.000784529559385,0.00237351361497
sitting_chair_1,-5.420368043,1.0772131337,-8.38783511,-0.00740661677,0.0006042437,-0.04909362771,0.051089027614459,0.101569991035061,0.045055973638498,0.050243654759312,0.02429684075783,0.04899996420424,0.002610088742591,0.010316463078862,0.002030040760513,0.002524424843573,0.000590336470811,0.002400996492017
sitting_chair_1,-5.338602296,1.0894958493,-8.43475224,-0.04937286419,0.01584625236,-0.0599029541,0.092867876887014,0.168089120533156,0.057792576105644,0.039364533880016,0.012313310284557,0.04806197732782,0.008624442557502,0.02825395244161,0.003339981852927,0.001549566527591,0.000151617610164,0.00230995366466
sitting_chair_1,-5.274260865,1.2238677996,-8.458698745,-0.02057647975,0.00166167377,-0.00419006369,0.0594291268789,0.152573685222708,0.049197446349024,0.053766058866537,0.017314569909771,0.047781961194155,0.003531821121588,0.023278729422438,0.002420388727265,0.00289078908604,0.00029979433116,0.00228311581556
sitting_chair_1,-5.284639293,1.305133669,-8.44455931,0.00789947215,-0.00676577053,0.01940461044,0.045192213604004,0.089077489044265,0.044649052985748,0.02533446380521,0.010425818488364,0.018679130220505,0.00204233617043,0.007934799054431,0.001993537932524,0.000641835056297,0.000108697691152,0.000348909905795
sitting_chair_1,-5.267000761,1.39742065,-8.437465805,0.03190002442,-0.01187136568,0.04511414418,0.051645009219666,0.112967014475929,0.045956163839554,0.046299725738871,0.014922735225208,0.036463379722631,0.002667206977299,0.012761546359605,0.002111968994848,0.002143664603495,0.000222688026602,0.001329578060797
sitting_chair_1,-5.350694607,1.3027770957,-8.402093485,0.04124603274,-0.02163392375,0.02838745125,0.125430488698362,0.182098386934907,0.068277034221975,0.04599854306173,0.019120409127604,0.056579702577665,0.01573280749511,0.033159822524295,0.004661753402149,0.002115865963802,0.000365590045207,0.003201262743777
sitting_chair_1,-5.458644409,1.0610504155,-8.362150875,-0.03076629676,-2.5943880000001E-05,-0.07095794727,0.070144199974054,0.114550724668185,0.059189797637392,0.068081684010993,0.030382747587076,0.065785980839392,0.00492020879,0.013121868522006,0.003503432144355,0.004635115697773,0.00092311135094,0.004327795275001
sitting_chair_1,-5.33784058,1.1540515158,-8.41937504,-0.07137603785,0.02315215674,-0.07798614582,0.141400035521592,0.205538999464317,0.079005144840517,0.06573722898604,0.024647483767993,0.086666461738198,0.019993970045508,0.042246280300793,0.006241812911271,0.004321383274763,0.000607498456093,0.007511075590219
sitting_chair_1,-5.231390391,1.391184086,-8.45869877,0.02695465103,-0.01024780266,0.05763244604,0.082821654024626,0.144957333365875,0.055717554896492,0.10801360381905,0.04088171223849,0.116187504914579,0.006859426375375,0.021012628496546,0.003104445923644,0.011666938609979,0.001671314395551,0.013499536298275
sitting_chair_1,-5.338983155,1.2345080636,-8.411043705,0.07575683587,-0.02647247313,0.05864715574,0.113147578344602,0.256744276657843,0.055430476693514,0.057460536604884,0.023521404118626,0.107327973725381,0.012802374485248,0.065917623596559,0.00307253774647,0.003301713266921,0.000553256451712,0.011519293943996
sitting_chair_1,-5.382853383,0.9379138229,-8.41270994,-0.05908203116,0.01253509527,-0.09522552482,0.07968479109993,0.1820451058092,0.056554663137288,0.106167634157217,0.028928033900348,0.086683431759127,0.006349665932639,0.033140420549083,0.003198429922572,0.011271566542541,0.00083683114534,0.007514017341539
sitting_chair_1,-5.236889026,1.1271295153,-8.477598845,-0.07873535132,0.01742705911,-0.06948394527,0.119301413024184,0.305555537325114,0.062456954695226,0.092939603358868,0.027450396382262,0.110900554806869,0.014232827149567,0.093364186390039,0.003900871189801,0.008637769872504,0.000753524261543,0.012298933056471
sitting_chair_1,-5.184235234,1.414583129,-8.490286235,0.06280059843,-0.02178345115,0.09760132063,0.070685102390239,0.080792457400949,0.052544932597819,0.082333939104562,0.028753860891783,0.100149838081141,0.004996383699919,0.006527421172884,0.002760969941709,0.006778877528474,0.000826784516184,0.010029990067679
sitting_chair_1,-5.313203734,1.2035870368,-8.44010809,0.10486297626,-0.03189849802,0.09708862272,0.10019630704831,0.25941043243197,0.049162770315533,0.042194791059086,0.018183882572007,0.101575730865325,0.010039299946119,0.067293772454542,0.002416977985098,0.00178040039252,0.000330653585393,0.010317629100825
sitting_chair_1,-5.395231323,0.7795953366,-8.43553777,-0.00964965818,-0.00199127107,-0.06996460043,0.04783826647197,0.239713006625113,0.063911453265018,0.102643065368802,0.022946405106634,0.112346414020026,0.002288499739043,0.057462325545252,0.004084673858447,0.010535598868304,0.000526537507318,0.012621716743159
sitting_chair_1,-5.292304087,0.8523870808,-8.48314517,-0.10966796886,0.01960600968,-0.13304748577,0.124995012096597,0.352593510023387,0.084911004110817,0.087113660567738,0.022597984810517,0.073290484483127,0.015623753049029,0.124322183310613,0.007209878619107,0.007588789857511,0.000510668917496,0.005371495115771
sitting_chair_1,-5.230033581,0.94007995123,-8.516018073,-0.05317535402,0.00531462729,-0.01419830334,0.153690157707195,0.53169779596379,0.207327286812883,0.16688086305208,0.098232222887493,0.189857104940868,0.023620664576063,0.282702546232752,0.042984603857192,0.027849222453007,0.009649569613418,0.036045720296528
stand_up_chair_1,-4.897376716,2.63195251273,-7.970722621,-0.39522857747,-0.11907806457,0.30281829988,0.530193739264657,2.43356563575577,1.58109410160409,0.542589471854361,0.318926968280665,0.29513538073137,0.281105401155439,5.92224170353138,2.49985855812726,0.294403334967194,0.101714411096696,0.087104892959451
stand_up_chair_1,-2.46309021003,7.0245465495,-3.33054625353,-0.60966339358,-0.15656891008,0.49087066688,2.24673799342455,2.9765311569874,4.45302964882503,0.522577713453382,0.399669601950254,0.423700914511992,5.0478316110974,8.85973772851674,19.8294730533147,0.273087466598165,0.159735790723074,0.179522464958299
standing,-0.54408264301,9.67049567,0.15515014501,-0.14683838023,-0.04064636333,0.16341857716,0.923782540424398,0.663899889648164,1.24128001959302,0.525104617664829,0.292862319516479,0.525689733078733,0.853374181992955,0.440763063474845,1.54077608704084,0.275734859492926,0.085768338192572,0.276349695464389
standing,-0.44474975665,9.736693745,0.40687438891,-0.02751922871,0.0913940432,-0.0015945391,0.579150592921583,0.477176923933131,1.13110500683997,0.339311155980397,0.194347081345227,0.244277043734056,0.335415409281421,0.227697816734285,1.27939853649845,0.115132060572753,0.037770788027408,0.05967127409545
standing,-0.15277343787,9.673709105,1.39563293137,-0.08733369023,0.08769835587,0.05720520958,0.309248407159226,0.24712580047162,0.403278530600349,0.158307336066398,0.169596164511615,0.151027519556905,0.095634577330519,0.061071161258739,0.162633573243177,0.02506121265244,0.028762859017051,0.022809311663511
standing,-0.12639892609,9.66221191,1.570114136,-0.00334778777,-0.00352938272,-0.00584561994,0.092768454778561,0.043340264473911,0.07316877640145,0.011769530788994,0.020566287463488,0.007055191822024,0.008605986202002,0.001878378524669,0.005353669840085,0.000138521854993,0.000422972180031,4.97757316455579E-05
standing,-0.15855773964,9.65547542,1.61993531,-0.00065613683,-0.00061341841,-0.00286556618,0.038835088713104,0.032093204326509,0.046743929025731,0.00851858221651,0.016513163722352,0.004422824331099,0.001508164115355,0.001029973763943,0.002184994900763,7.25662429794382E-05,0.000272684576121,1.95613750637576E-05
standing,-0.17295898461,9.6611407,1.602034916,0.00354154726,-0.00487518651,-0.00312192878,0.066713129012735,0.065213918708843,0.060857409398821,0.014150993084787,0.022806867774746,0.013519817875734,0.00445064158267,0.004252855193364,0.003703624278736,0.000200250605286,0.000520153217695,0.000182785475393
standing,-0.15753417976,9.661378785,1.604700926,-0.00496064352,-0.01767121241,-0.00598448752,0.084354389053797,0.067475223204007,0.076884201409261,0.02031788318304,0.024328200922715,0.01553577435734,0.007115662952639,0.004552905746431,0.00591118042634,0.00041281637704,0.000591861360136,0.000241360284882
standing,-0.17600585935,9.644216305,1.68958496,-0.00821838559,-0.00591126375,-0.0060806136,0.082216333718288,0.044380301252494,0.088660012646121,0.016361560445195,0.028030289513288,0.010245430606533,0.006759525530077,0.001969611139262,0.00786059784241,0.000267700660202,0.000785697130199,0.000104968848313
standing,-0.2101641845,9.630291115,1.761567383,6.09524999999989E-06,0.00408629048,-0.00166928772,0.058527955853837,0.035906757001474,0.052520131547488,0.01127843525637,0.017356561753446,0.007185342924568,0.003425521616429,0.001289295198363,0.002758364217765,0.000127203101832,0.000301250235901,5.16291529436399E-05
standing,-0.17748168925,9.63160033,1.742357788,0.00362699121,-0.00188447269,-0.0003875395,0.051096409397031,0.029664306490915,0.056522089779388,0.007543405194251,0.009284810191906,0.004692737165421,0.002610843053269,0.000879971079587,0.003194746633029,5.69029619246586E-05,8.62077002997178E-05,2.20217821037197E-05
standing,-0.16503234806,9.63936032,1.702224735,0.00395811044,0.00142667721,-0.00441434659,0.044919913438267,0.03090107415139,0.042339418391141,0.005536965088222,0.009773390652431,0.005763589428801,0.002017798623301,0.00095487638371,0.0017926263497,3.06579823881914E-05,9.55191648450352E-05,3.32189631037903E-05
standing,-0.20706970186,9.645335045,1.683895879,0.00648955533,0.0008285224,-0.00542903607,0.053169351092656,0.028184354925851,0.051195449111849,0.005854835283487,0.010756089223515,0.005268093047657,0.002826979895614,0.000794357862586,0.002620974009764,3.42790961967683E-05,0.000115693455384,2.77528043587674E-05
standing,-0.22139953595,9.64983398,1.646357424,0.0029434157,-0.00622102594,-0.00334620447,0.045214799453296,0.027714372252827,0.064632293245755,0.008244920778082,0.01167704069002,0.004088614286517,0.002044378089602,0.000768086429368,0.004177333330205,6.79787186368528E-05,0.000136353279276,1.67167667839093E-05
