label,TYPE_ACCELEROMETER_X(Mean),TYPE_ACCELEROMETER_Y(Mean),TYPE_ACCELEROMETER_Z(Mean),TYPE_GYROSCOPE_X(Mean),TYPE_GYROSCOPE_Y(Mean),TYPE_GYROSCOPE_Z(Mean),TYPE_ACCELEROMETER_X(S.D),TYPE_ACCELEROMETER_Y(S.D),TYPE_ACCELEROMETER_Z(S.D),TYPE_GYROSCOPE_X(S.D),TYPE_GYROSCOPE_Y(S.D),TYPE_GYROSCOPE_Z(S.D),TYPE_ACCELEROMETER_X(varience),TYPE_ACCELEROMETER_Y(varience),TYPE_ACCELEROMETER_Z(varience),TYPE_GYROSCOPE_X(varience),TYPE_GYROSCOPE_Y(varience),TYPE_GYROSCOPE_Z(varience)
walking,0.5063751182,9.219796147,-1.50473021496,-0.226060041333333,0.131728051373737,0.03355346249495,2.04108934928732,3.38482842983075,3.86543976853617,1.29332186672101,1.20060835292132,0.925654289032945,4.16604573177412,11.4570634993905,14.9416246041809,1.67268145093872,1.44146041710445,0.856835862805088
walking,1.24164795078,9.3680694693,-1.29332946526,0.06015320069,0.02303771706,-0.13537597659,2.39091696426523,4.03418204719534,4.16860802831884,1.58346240587273,1.36313108361092,0.981034862593973,5.71648393001126,16.2746247899131,17.3772928937643,2.50735319081224,1.85812635110627,0.962429401624775
walking,1.36111877942,9.6949181848,-1.2071600377,0.16682587196,0.01926726822,-0.17340088072,2.50966477232419,4.45912367672613,4.20576669719367,1.50935061687818,1.41808656847731,0.897928432594999,6.29841726944501,19.8837839643396,17.6884735112233,2.27813928467053,2.01096951569575,0.806275470062511
walking,1.2764727732,9.62079343,-1.18190428258,0.1441925113,0.1130157439,-0.19676056076,2.51909063160427,4.41191308360435,4.09393396227282,1.53969574944867,1.40503792944505,0.873597903485904,6.34581761023638,19.4649770572792,16.7602952874509,2.3706630008703,1.97413158317923,0.763173296974966
walking,1.5019891269,9.4796136228,-0.48497923813,0.03781891369,-0.03826141538,-0.09983978494,2.38005594143658,3.99210589446843,3.42419310762841,1.621070822275,1.43162160471027,0.959042025538206,5.66466628436758,15.9369094726496,11.7250984383299,2.62787061083135,2.0495404190732,0.919761606748425
walking,1.58668273724,10.0728973133,-0.14172974145,-0.06965484196,-0.18794708092,0.00162048302,2.271096885931,3.43532772445436,3.28658427676506,1.59374193471553,1.26125554569984,0.944243550523819,5.15788106528549,11.8014765744048,10.8016362082793,2.5400133544708,1.5907655515586,0.891595882705828
walking,1.34481322994,10.0155244125,-0.8884759575,-0.26680755505,-0.06365051245,0.06991577337,2.20628016115874,4.0821619653906,4.05136742857404,1.56169209753778,1.08586417492369,0.879294575599799,4.86767214952262,16.6640463116817,16.4135780413106,2.43888220751194,1.1791010063827,0.77315895067923
walking,1.42041382358,9.1492597791,-1.2475073163,-0.32883300894,0.08629150695,0.04248657073,2.29251532521559,4.6880374522829,4.26500756455589,1.55180765738005,1.22985947974468,0.893652994802904,5.25562651634834,21.9776951540072,18.190289525719,2.40810700550337,1.51255433991786,0.7986156751202
walking,1.59120545073,9.2176419098,-1.12796508068,-0.11478271388,0.01222839937,-0.08330535954,2.61715515663993,4.79191917780105,4.43581224345316,1.6777657798408,1.43497784549094,0.983586443588961,6.84950111392698,22.9624894065774,19.6764302591689,2.8148980120048,2.05916141704983,0.96744229201198
walking,1.60217895703,9.4836721768,-0.95074646498,0.16693267786,0.02027130557,-0.20581817089,2.90961862222789,4.91099158000489,4.86122897041335,1.66274438275629,1.45923358554423,0.902818192369162,8.46588052681533,24.1178382988789,23.631547102786,2.7647188823876,2.12936265718027,0.815080688472721
walking,1.50924926738,9.6097723383,-0.8278717054,0.17198486483,-0.01425017938,-0.19962310224,2.91978617863773,4.32671231150941,4.49833725083036,1.51790198833636,1.46299537800627,0.895345305060688,8.5251513289639,18.7204394265671,20.235038022208,2.30402644619547,2.14035547606771,0.801643215294216
walking,1.45614318146,9.3706164657,-0.1839337089,-0.01374969817,-0.20783538518,-0.10082244785,2.68019073235231,3.7372014927794,3.3422815708353,1.55068361671688,1.35548048505966,1.07031413203846,7.18342236178723,13.9666749976326,11.1708460987453,2.40461967915415,1.83732734537757,1.14557234124125
walking,1.26397582446,9.474710113,0.28759399817,-0.03556061202,-0.27270202626,-0.06185760856,2.4874286160335,3.4618791829258,3.118874959587,1.52658247686015,1.30639040181155,1.1606605513409,6.18730111986231,11.984607477175,9.72738101353882,2.33045405865648,1.70665588194535,1.34713291543895
walking,0.6779760683,10.103223261,-0.0430633552,-0.06170806685,-0.13135834096,0.08859710452,2.7174290747811,3.41349536806189,3.45913680509006,1.40000445614822,1.20548020834718,1.1039534247295,7.38442077646565,11.65195062778,11.9656274363287,1.96001247723486,1.45318253271676,1.21871316397199
walking,-0.2495831338,9.820078109,-0.26429503787,-0.27418823012,0.09157867477,0.21833038013,2.73494076405376,3.58664589345935,3.50867332414735,1.19995992030466,1.04817955402094,1.05841629200142,7.47990098288296,12.8640287650688,12.3107884955832,1.43990381033757,1.09868037746754,1.12024504717404
walking,-0.67502685496,9.184090578,-0.44648864524,-0.24092712552,0.01073303631,0.07798003777,2.82543222998504,3.47231033954696,3.27727134147368,1.20313515975654,1.26572384472128,1.20989056058743,7.98306728623826,12.0569390941248,10.7405074456447,1.4475342126424,1.60205685109603,1.46383516859856
walking,-0.75995849239,9.457071558,-0.38619385326,0.0257278438,-0.09478607115,-0.10796813464,3.39416563298816,3.57974967063616,3.08069729533596,1.30340991225575,1.36487392066324,1.28267335416287,11.5203603441579,12.8146077044197,9.49069582549031,1.69887739936655,1.86288081930665,1.64525093347943
walking,-0.37545715783,9.658992486,-0.68707275692,0.22829590018,0.1242950436,-0.12420348572,3.29307802565105,4.57164456453473,3.79575653006051,1.39476770090822,1.22160833226479,1.10885686425884,10.8443628830258,20.8999340244399,14.407767635497,1.94537693949679,1.49232691745876,1.22956354541395
walking,0.76816832496,9.6006971501,-1.1883789078,0.20592956563,0.25754242061,-0.11705780055,2.93023257466007,5.09934009498744,4.38969495221728,1.63936272037254,1.1812180739687,0.994540467460779,8.58626294159896,26.0032694043465,19.2694217735218,2.68751012894727,1.39527613827032,0.989110741417105
walking,1.601036382,9.4210326835,-0.44377501546,0.01308135635,0.02052765052,-0.11132202176,2.84117361588984,4.65212491834067,3.87915680353909,1.75597490886967,1.44139013607709,1.06012995429135,8.07226751562853,21.6422662558462,15.0478575064436,3.08344788057986,2.07760552438032,1.12387551998578
walking,1.72907655432,9.8586639356,-0.07607907896,-0.06683502776,-0.20294342059,-0.02167510959,2.76976152246697,4.28751466107569,3.76284792853979,1.738929936375,1.44815892543248,1.04338942466553,7.67157889133852,18.382781968939,14.1590245333162,3.02387732362117,2.09716427330976,1.08866149150386
walking,1.71265198419,10.190701935,-0.7841442675,-0.20418396138,-0.15702514758,0.07019347994,2.89245855005266,4.49201255027106,4.48134496009745,1.66732347545258,1.34589787686356,0.955412471925395,8.36631646377271,20.1781767517927,20.0824526513908,2.77996757179525,1.81144109494584,0.912812991510594
walking,1.36135680929,9.5743464831,-1.05886291135,-0.34808044532,-0.00732879471,0.10321960356,2.64750150132806,4.86078675334816,4.4854933976353,1.61670224311378,1.41055371197426,0.909255568498794,7.00926419953434,23.6272478615249,20.1196510202299,2.61372614288912,1.98966177436437,0.826745688846065
walking,1.36449890458,9.1313355905,-1.09987669945,-0.221476745,0.0468566914,0.01084899808,2.58999152992893,4.78192398170366,4.6190492365208,1.74593723922845,1.50263457797408,1.00240809304781,6.70805612510362,22.8667969667926,21.3356158494034,3.04829684332466,2.25791067492333,1.00482198500775
walking,1.71643677116,9.2245806565,-1.0857372897,-0.0149139381,-0.05115356795,-0.11387481839,3.07254771163956,4.79501448023555,4.751318218064,1.83272896930508,1.60813542266438,1.04798635997771,9.44054944030152,22.9921638656686,22.5750248093068,3.35889547493006,2.58609953762794,1.09827541069933
walking,1.64255004176,9.6129620156,-1.020538927,0.13328705004,-0.03799439073,-0.20172729464,3.24181643543063,4.95298696551341,4.73645639624827,1.73922289664158,1.61034009781961,1.00921242345207,10.5093738010281,24.5320798805457,22.4340191935612,3.02489628420234,2.59319523064567,1.01850971565
walking,1.61867492182,9.7298382453,-1.19959044207,0.21731567356,0.0743286124,-0.22868652197,3.11366537454544,4.89419371974348,4.66291811670309,1.62859016700991,1.52347213427252,0.97212301446183,9.69491206464321,23.9531321663766,21.7428053630778,2.65230593208136,2.32096734390488,0.945023155246355
walking,1.53233886565,9.41784299657,-0.69295226584,0.09085083022,0.01918183014,-0.14825744301,2.73625637501792,4.8072716759419,3.95334569688377,1.76850123385207,1.43760581506459,1.01181556872512,7.48709894982623,23.1098609663133,15.6289421990694,3.12759661413629,2.06671047950753,1.02377074511453
walking,1.62981505813,9.58653396707,-0.21354553027,-0.00085754269,-0.14436797678,-0.06622619038,2.74580907668861,4.68411557870885,3.68811076454026,1.85177454037253,1.44294897380215,1.05414881766987,7.53946748562556,21.940938754703,13.6021610115177,3.4290689483719,2.08210174099669,1.11122972979478
walking,1.73226623372,10.0941421405,-0.74991455983,-0.17194824627,-0.2180252098,0.04104462005,2.90297568981205,4.31818392653126,4.408665926088,1.71469541309144,1.42421732733418,0.942266119722603,8.42726785563973,18.6467124233529,19.4363352478493,2.94018035967682,2.02839499547892,0.887865440377092
walking,1.23579223614,9.6404255309,-1.09340211163,-0.37293548582,-0.03595428805,0.10836791748,2.5602958264497,4.56120345078503,4.73922161292311,1.6342614998164,1.3585055749714,0.883861966945864,6.55511471893575,20.8045769194533,22.4602214963975,2.67081064978214,1.84553739722838,0.781211976613411
walking,1.26426147434,9.1279911715,-1.13055969892,-0.23813934484,0.05480346229,0.01455535696,2.81824601356476,5.25456712570124,4.76686939585083,1.7856243922799,1.49703236209767,1.03500627667615,7.94251059297364,27.6104756785001,22.7230438370993,3.18845447030496,2.24110589316774,1.07123799275903
walking,1.72733887439,9.2606730801,-1.10387572782,0.00281676664,-0.00098419744,-0.12246246351,3.05377987366199,5.17859475844062,4.63466163505789,1.8484420256447,1.55001284807132,1.06231729725108,9.32557151678304,26.8178436721487,21.4800884714774,3.41673792216947,2.40253982918617,1.12851804003883
walking,1.61717530602,9.6781128125,-0.89257019195,0.23058166434,0.32832641618,-0.22586670326,2.67060338001271,4.41249991743963,4.32855116433793,1.60907567693577,1.43424760950889,0.974350327201538,7.13212241333529,19.4701555214047,18.7363551822912,2.58912453410629,2.05706620538196,0.949358560117743
walking,1.37801941325,9.74790528,-1.01020813541,0.3140869153,0.70382232931,-0.31966858349,2.53830755324145,4.17160306067815,4.04349630946729,1.45970885193361,1.31699286061674,0.924589813043798,6.44300523484261,17.4022720958593,16.3498624046756,2.13074993241332,1.73447019491545,0.854866322384364
walking,1.6078680419,9.3985382033,-0.3511547787,0.1653625494,0.4537338289,-0.27980651835,2.61403129270239,4.42220872874549,3.53136272917449,1.61216893591224,1.39690264408965,0.970163322811124,6.83315959922735,19.5559300405928,12.4705227250027,2.59908867792039,1.95133699706466,0.941216872927921
walking,1.75945007436,10.0531640823,0.02275390384,-0.09578094571,-0.07628631201,-0.05826873639,2.75005932411694,4.06613462874798,3.70345566845094,1.71174840442626,1.35334634160109,0.974575420188298,7.56282628616254,16.5334508191035,13.7155838881814,2.93008260005585,1.83154632032507,0.949797249635198
walking,1.50744018368,10.0802050748,-0.83860718456,-0.28673858711,-0.04426422047,0.09884033113,2.63864198305044,4.38811233819438,4.4498289916307,1.75119506407932,1.26366863275029,0.889985921467079,6.96243151471634,19.2555298926137,19.8009780547571,3.06668415245577,1.596858413397,0.792074940409606
walking,1.38258972074,9.2865893138,-1.15595824684,-0.33595733902,0.11394500556,0.08389739687,2.74060407803208,5.06668872218492,4.65037352901054,1.7516801621055,1.460564198168,0.933622599946777,7.51091071252608,25.6713346075159,21.625973959322,3.06838339031394,2.13324777697012,0.871651159131379
walking,1.58175537428,9.128366057,-1.0531738136,-0.15374756325,0.03132628752,-0.07832794474,3.12333032527122,4.79670207930065,4.77954152990723,1.82425752411817,1.60246758945309,1.01761766267498,9.7551923207588,23.0083508375672,22.844017236108,3.32791551430174,2.56790237524761,1.03554570738809
walking,1.82491028986,9.4371001946,-0.91394591265,0.09045562613,-0.0561203032,-0.16997223056,3.32088187005017,4.87798054540845,4.75749778102961,1.93826683024203,1.65817391776366,1.03223346539208,11.0282563948279,23.7946942013833,22.6337851365017,3.75687830521649,2.74954074155169,1.06550592707535
walking,1.7974884168,9.7192456128,-1.018039556,0.25968780638,0.05258178859,-0.20111846782,3.41777087992763,4.9818229070947,4.69278779524337,1.75937289802295,1.62925491655129,0.972787317561455,11.6811577876813,24.8185594776535,22.0222572911851,3.09539299429768,2.65447158310654,0.946315165208411
walking,1.72322082832,9.5811602862,-1.14631776393,0.22570037617,0.12348327637,-0.18760680592,3.0287610238276,4.88655625472243,4.56783155878103,1.7591660963978,1.50142258271677,0.955374313362903,9.1733933394572,23.8784320305669,20.8650851493959,3.09466535471547,2.25426977189191,0.912740078633638
walking,1.66842467847,9.4369335738,-0.53706177188,0.00152434937,-0.01718750082,-0.11559447969,2.90344292216939,4.90262645089627,4.05469065122448,1.90836176133975,1.56858971049099,1.0476976585994,8.42998080229555,24.0357461170277,16.4405162771272,3.64184461214375,2.46047367985821,1.09767038383467
walking,1.72819579275,9.6719238133,-0.15329834028,-0.02875671838,-0.08336792212,-0.0834655803,3.13611543903232,4.68079092747587,3.97641537796207,1.85069300346405,1.57271006936912,1.05554222091993,9.83522004693688,21.9098037067404,15.8118792580932,3.42506459307078,2.47341696229503,1.11416938014457
walking,1.6987982073,10.1351440425,-0.69609436412,-0.1867202803,-0.22660217387,0.03860930918,2.80792329445001,4.24452835308825,4.47486668452841,1.73671767388577,1.4549056428241,0.936567401698188,7.88443322751499,18.01602094017,20.0244318443023,3.01618827878719,2.11675042952139,0.877158497923695
walking,1.33398254173,9.6902765092,-0.94070130587,-0.33167419742,-0.03453369337,0.06693572674,2.22144312457063,4.23697703348054,4.3096687565548,1.53673664232284,1.36235812560121,0.888237883933138,4.93480955570212,17.9519743822416,18.5732447912246,2.36155950785768,1.85601966239165,0.788966538454019
walking,1.43038757553,9.0609301911,-1.08159547343,-0.19333191449,0.13088531127,-0.04631652862,2.39294922638135,4.39946054899578,4.33474034351354,1.63713074139986,1.42723572698219,0.961311191639839,5.7262060000391,19.3552531221702,18.7899738456839,2.68019706443646,2.03700182037437,0.924119207172007
walking,1.71265197472,9.2773297192,-1.232796637,0.00721740647,-0.12911529347,-0.10851287755,2.85613585726249,4.42988219802128,4.4977788003634,1.78461646310391,1.5891637697037,0.957644692541991,8.15751203514056,19.6238562883459,20.2300141369984,3.1848559203815,2.52544148693889,0.917083357153844
walking,1.59666244807,9.5249954663,-1.2499888779,0.27312470036,0.00738983857,-0.21951141203,3.18557491621654,4.70644508609316,4.37685728814215,1.64561182932807,1.60463616677322,0.934413315703345,10.147887546828,22.1506253484105,19.156879720763,2.70803829282449,2.57485722771666,0.873128244563719
walking,1.47835800141,9.49650243,-1.1930027911,0.21735840218,0.15072021743,-0.2049102771,3.04470027897498,4.75387162287181,4.19638485868491,1.6847052581752,1.51843470876244,0.930677852439262,9.27019978879031,22.5992954067458,17.6096458821999,2.83823180692315,2.30564396477448,0.866161265020957
walking,1.59322875728,9.3548108021,-0.35432068113,-0.01402740617,-0.07327423236,-0.07527313317,2.63966155606332,4.5242831849873,3.64933228196586,1.79537979517065,1.47306532404971,0.986847103963255,6.96781313055861,20.4691383379588,13.3176261041982,3.223388608907,2.16992144891769,0.973867206600663
walking,1.67899352414,9.8543554441,-0.08502929183,-0.09708404829,-0.25923309685,-0.02147216608,2.90242369114791,4.21198150017558,3.79784313951265,1.7143717121283,1.46659945416965,1.01856426376357,8.42406328293668,17.7407881578213,14.4236125123433,2.93907036734572,2.15091395897073,1.03747315941623
walking,1.61165281742,10.0448803591,-0.86288695461,-0.28634338344,-0.14483795348,0.07591858158,3.0178235307413,4.28891068980622,4.39481910780938,1.68285169581209,1.31535472939968,0.898260343859363,9.10725886269588,18.3947549051341,19.3144349903664,2.83198983009762,1.7301580641541,0.806871645350341
walking,1.38973083531,9.3096789594,-1.13148803867,-0.41101379406,0.07955169981,0.09420470914,2.58881540578003,4.59292926711869,4.32557689859303,1.61145082726187,1.25773851730816,0.868904968410248,6.701965205204,21.0949992527554,18.7106155056417,2.59677376868298,1.58190617792053,0.754995844128014
walking,1.25990539883,9.0430714468,-0.94539063116,-0.21942596419,0.06010131903,-0.04592132584,2.47469195480987,4.4136505307785,4.38498205403542,1.65068752423085,1.47919184404991,1.0031799474248,6.1241002712007,19.4803110078414,19.2280676142127,2.72476930265136,2.18800851150376,1.00637000691523
walking,1.54976317854,9.5117427263,-0.8852624633,0.02926330639,-0.06534881432,-0.12528228646,2.82873813075135,4.44112694346285,4.44048064968125,1.71305858108926,1.48452371241478,1.00716480243232,8.00175941236664,19.7236085279517,19.7178684001936,2.93456970224356,2.20381065272176,1.01438093925852
walking,1.62369750232,9.7757318183,-1.1695501763,0.2349075319,0.06288910341,-0.21592254837,3.11584044197953,4.54937260764188,4.36666268747849,1.60605511944345,1.42559172149831,0.916552517928722,9.70846165987519,20.6967911231623,19.0677430262168,2.57941304669051,2.03231175640452,0.84006851812148
walking,1.3562390084,9.530315532,-0.93679747973,0.14080657933,0.17641906832,-0.21265411279,2.98977644147291,4.45936115366286,4.10958399085976,1.6175871918329,1.42695555069334,0.965088084111324,8.93876316998639,19.8859018987973,16.8886805779308,2.61658832318184,2.03620214365453,0.931395010093666
walking,1.50851135228,9.4614037973,-0.10466735786,-0.02140808344,-0.09112243089,-0.06637573237,2.70455974311146,4.22209649794205,3.48214118176814,1.70518284725286,1.50705418540263,1.00845808208605,7.31464340405914,17.8260988379345,12.1253072097656,2.90764854256537,2.27121231773959,1.01698770332467
walking,1.79958312792,9.9359070098,-0.35729614493,-0.17064514261,-0.26192473544,0.08278655792,2.49053392148315,3.82972355207001,3.48386791016642,1.61131777188628,1.29355055710665,0.849476416186022,6.20275921405822,14.6667824852797,12.1373356154873,2.59634496199658,1.67327304379092,0.721610181656249
walking,1.28635131359,9.808509526,-1.0582916185,-0.39397735679,-0.05483856062,0.15414733669,2.17498828577589,3.97871673742924,3.81092408872573,1.42827402876218,1.04215165464031,0.852943334347815,4.73057404326235,15.8301868766996,14.52314241003,2.03996670123654,1.08608007126954,0.727512331608368
walking,1.21653502673,9.168570549,-1.04774656957,-0.08279266675,0.43201904408,-0.08897705208,2.04837094577978,3.99738417292887,3.63632069446155,1.43208156512143,1.23220092838178,0.954844636769687,4.19582353151474,15.9790802259822,13.2228281929693,2.05085760916064,1.51831912790493,0.911728280367835
walking,1.33379211211,9.566330594,-0.85705505247,0.3946762079,1.02799530234,-0.43878479144,2.33037180737628,3.33005512992916,3.49992365935073,1.38670763470207,1.3113471592736,0.996415299057515,5.43063276061417,11.0892671683675,12.249465621283,1.922958064141,1.71963137213495,0.992843448195877
walking,1.41960450173,9.863519892,-0.60335510393,0.43975067195,1.14508209684,-0.46839294308,2.41259690628357,3.50296006003665,3.3914796988978,1.36457458724497,1.33905194175623,1.06985425430769,5.82062383220908,12.2707291822119,11.5021345480359,1.86206380415477,1.79306010272114,1.14458812546027
walking,1.78396790344,9.6504528667,-0.20973695048,0.20559844879,0.42714844203,-0.2718063323,2.48149377628529,3.98786446774618,3.51911028728053,1.56799822590559,1.52314759641638,1.06761100391574,6.15781136174263,15.9030630131125,12.3841372140436,2.45861843644306,2.31997860046898,1.13979325568198
walking,1.78044494194,9.9313128667,-0.51928040845,-0.13252410973,-0.17982940716,-0.02800903272,2.8233646269305,3.9397732130192,4.05443185603807,1.63665475516674,1.41826845688636,0.947624295894012,7.97138781660238,15.5218129700237,16.4384176752563,2.67863878760991,2.01148541579882,0.897991806168622
walking,1.27378295484,9.7277673537,-1.05495910972,-0.37056427137,-0.06595764558,0.11145477255,2.56619754927606,4.21726487550737,4.29952536066721,1.54127490377946,1.35424388915535,0.863399466548838,6.58536986191045,17.7853230301882,18.4859183270205,2.37552832902038,1.83397651131461,0.745458638836819
walking,1.23198364254,9.0346747204,-1.14265198282,-0.2438537611,0.06005858827,0.00237884867,2.61394991889946,4.46185019331655,4.3581629556241,1.69967580350883,1.41516011251725,0.979698669559085,6.83273417851452,19.9081071475989,18.9935843477742,2.8888978370334,2.00267814405983,0.95980948313584
walking,1.68706299432,9.2858276367,-1.1438183517,0.0080398526,-0.01833038084,-0.11993102551,2.87347372451377,4.55890418252679,4.31805513970052,1.79397430444571,1.47435935703363,1.01505572241242,8.25685124547104,20.7836073454602,18.6456001894941,3.21834380501145,2.17373551367263,1.03033811960219
walking,1.69682251875,9.5325233294,-1.1361297574,0.1896087648,0.0957122875,-0.22651825033,2.90732575917624,4.77978768691487,4.41578477419183,1.69135251357517,1.37573416597389,0.925048121821468,8.45254306996968,22.846370331983,19.4991551719843,2.86067332517706,1.89264449542787,0.855714027685425
walking,1.48942078622,9.5109571744,-1.24700744853,0.2034088135,0.16480865267,-0.24496460032,2.91790065348774,4.76243632288919,4.39759153763343,1.67249076764453,1.3375805732656,0.876461923387721,8.51414422362417,22.6807997295743,19.3388113318651,2.7972253678562,1.78912178997754,0.768185503148504
walking,1.65709412146,9.449192492,-0.35477294813,0.09858398294,-0.08430786615,-0.12094573618,2.7544636376426,4.4607010305996,3.63957245923444,1.76982322335041,1.419834690028,0.961810018043653,7.58706993109533,19.8978536843923,13.2464876860178,3.13227424191044,2.01593054700691,0.925078510809131
walking,1.79948791259,10.022332292,-0.0144513014,-0.11310577329,-0.28545532172,0.01030426248,2.91770485178105,4.11731582660542,3.68246798497918,1.75033434591227,1.33967337839395,0.924923301039552,8.51300160210671,16.9522896160154,13.5605704603966,3.06367032248014,1.79472476077747,0.855483112805903
walking,1.36173767896,9.845613543,-0.8498663288,-0.37816925319,-0.0669189404,0.09692840384,2.60850336485772,4.29044380641227,4.28385736290647,1.64038175695579,1.19101458384506,0.853220148909155,6.80428980447402,18.4079080559814,18.3514339057279,2.69085230855336,1.41851573893161,0.72798462250456
walking,1.35997620406,9.15216982,-1.11439697141,-0.31813049519,0.06825104245,0.03339690942,2.64041447254378,4.28221160185135,4.16469783570133,1.66597663228522,1.35275601149295,0.952063916367962,6.97178858681863,18.3373362030303,17.3447080626953,2.77547813932042,1.82994882663031,0.906425700849902
walking,1.69546569476,9.3886061165,-1.06881286816,-0.01269225745,-0.0884735109,-0.12970428458,2.87705170903404,4.38331961122711,4.15157793523963,1.77756917676653,1.44685094844221,0.98216595292131,8.27742653645571,19.2134908141682,17.2355993523686,3.15975217819045,2.09337766700812,0.964649959077824
walking,1.64547791134,9.5559223713,-1.12753662571,0.24737243947,0.004730221,-0.27276763902,2.76716039722908,4.69085630203838,4.05280632064899,1.63100987180737,1.36801943624661,0.906218289157731,7.65717666399298,22.0041328463731,16.4252390726924,2.66019320193309,1.87147717794848,0.821231587603964
walking,1.34721741816,9.7638537894,-0.96369568216,0.1356368997,0.02324066032,-0.20483551079,2.51985604099548,4.41167668568552,3.86352432211209,1.54367224484207,1.49860036885906,0.955173054006196,6.34967446734141,19.4628911790212,14.9268201875517,2.38292399949575,2.24580306554451,0.912355563099524
walking,1.54316955356,9.7357178124,-0.18767089485,0.04775237797,-0.00566253503,-0.03763275207,2.18428163656055,4.02610146878715,3.41697946441955,1.68888914231535,1.42904387214727,0.966277992100284,4.77108626781564,16.2094930369701,11.6757486602649,2.85234653503067,2.04216638852168,0.933693158017356
walking,1.8544506792,9.9376922738,-0.46384155989,-0.12871094364,-0.12742767422,0.04678039529,2.46079147427451,3.48539909281307,3.61839640108529,1.63293931150688,1.23564977081407,0.819757898918965,6.0554946798621,12.1480068361822,13.092792515387,2.66649079506458,1.52683035611287,0.672003012840036
walking,1.25478759681,9.6976259,-1.20587463604,-0.45358886973,-0.13179626852,0.10309143109,2.31298669140156,3.85722056565696,4.00819231038095,1.45383148513166,1.28442773025846,0.784257696486856,5.34990743460075,14.878150492127,16.065605596997,2.11362598716014,1.64975459425689,0.615060134498869
walking,1.18528075448,9.0364956769,-1.1544824288,-0.21710814873,-0.00990295361,-0.03449249475,2.41814630410969,4.48224850395045,4.1911834906361,1.63505054679742,1.48578590489524,0.939997699830884,5.84743154807935,20.090551651166,17.5660190521806,2.67339029058253,2.20755975518537,0.883595675687352
walking,1.67597045831,9.3659211513,-1.1056848347,0.12482758312,-0.03845367235,-0.19997558984,2.79426446894682,4.54436703189121,4.23881703201261,1.7385775453535,1.53531709420303,0.959251053782388,7.80791392241865,20.6512717205398,17.9675698308802,3.02265188120739,2.35719857975203,0.920162584182622
walking,1.51881836006,9.6547553889,-1.1612188806,0.24832306182,0.15760955626,-0.25199280023,2.80789442921771,4.636678525141,4.11875313610488,1.6284814080044,1.43142376801447,0.913112209709893,7.88427112563183,21.4987877455037,16.9641273961738,2.651951696216,2.04897400363674,0.833773907521284
walking,1.41515319022,9.5110285791,-0.8967120464,0.1752639725,0.14290161337,-0.19492340098,2.76184534765603,4.81550970525495,3.89063895476151,1.68214688211131,1.46185712379962,0.941902211181114,7.62778972436925,23.1891337214046,15.1370714763077,2.8296181329968,2.13702625040369,0.887179775427873
walking,1.66673462982,9.4216992298,-0.2658422963,0.02619781296,-0.05879058879,-0.10556487984,2.80382676773049,4.60478619170032,3.54699895271766,1.74977379096659,1.44053614068323,0.972539887124414,7.86144454344201,21.2040558712739,12.5812015705802,3.06170831955358,2.07514437261453,0.945833832047969
walking,1.73800294522,10.0077882582,-0.4569860943,-0.17371063024,-0.34046326346,0.00289154236,2.82572472327179,4.12570381190162,3.86888787608875,1.64568336939918,1.40013430385326,0.902499554154165,7.98472021170943,17.0214319435396,14.9682933977465,2.70827375231704,1.96037606882665,0.814505445248466
walking,1.27944824937,9.8358540105,-1.06669434867,-0.384951783,-0.19336242955,0.1031661981,2.28058066533843,4.33145921829949,4.12276689251672,1.6045525744536,1.29827201549441,0.799524220644359,5.20104817111549,18.7615389597917,16.997206850032,2.57458896418567,1.68551022621591,0.63923897939697
walking,1.31570130057,8.9673518182,-1.22913085611,-0.2358108583,0.17703857604,-0.02790222261,2.26000557790955,4.80669064616459,4.21993739924027,1.73003618835264,1.17808859673687,0.898751977560014,5.10762521218226,23.1042749679262,17.8078716535067,2.99302521300971,1.38789274176145,0.807755117168035
walking,1.5425744647,9.3021272395,-1.11082640914,0.0326919484,0.03721161085,-0.186944576,2.86567300227966,4.61976102924985,4.27397925228975,1.73564102441071,1.4639881849246,0.999841180845662,8.2120817559945,21.3421919673756,18.2668986490033,3.01244976561747,2.14326140559881,0.999682386914848
walking,1.49092040126,9.61936526156,-1.3026129157,0.21039428622,-0.02277373744,-0.19859771605,3.0367328306429,4.32070900051225,4.15262616268152,1.59432512350816,1.51995424319264,0.908232518876931,9.22174628470444,18.6685262671076,17.244304046987,2.54187259944931,2.31026090139931,0.824886308345535
walking,1.555357043,9.48918273876,-1.00232910643,0.11392212116,-0.03713988868,-0.1258056633,2.9187928385867,4.32387691270706,3.68407227041547,1.64190549225232,1.40411470470351,0.851266303424587,8.51935163458498,18.6959115562411,13.5723884936442,2.69585364548832,1.97153810396462,0.724654319346162
walking,1.73190917677,9.685158661,-0.23484986149,0.0078582735,-0.42175750793,-0.0707336418,2.89118040507076,3.78445480782301,3.38140705451921,1.70453034199925,1.48147034378074,0.88862796410198,8.35892413466515,14.3220981924547,11.4339136683523,2.90542368679609,2.19475437950183,0.78965965858403
walking,1.71262817283,9.894631341,-0.53849000634,-0.20746307941,-0.75630187613,0.06426544002,2.70012424677425,3.44341475918329,3.71461712010815,1.55185851031218,1.31655081283507,0.762878275560052,7.29067094801823,11.8571052037613,13.7983803490005,2.40826483602835,1.73330604277669,0.581983263321479
walking,1.30144286743,9.42288943,-1.14291383158,-0.41231689267,-0.52236327358,0.14997101018,2.15219151310286,3.80510838490254,3.9948185182191,1.44593059747032,1.42291321599163,0.717393150823498,4.631928309072,14.4788498208556,15.9585749935063,2.09071529270086,2.02468202024363,0.514652932848467
walking,1.4286498924,9.188059855,-1.22096618394,-0.10492400886,-0.25018615484,-0.0523406956,2.44267882335771,4.31269007455409,4.42989485140601,1.65846676863952,1.55952492641946,0.877228739592874,5.9666798340802,18.5992956791574,19.6239683945135,2.75051202268162,2.43211799612361,0.769530261567703
walking,1.70391600997,9.4707527336,-1.16307554607,0.1845779402,-0.10227355914,-0.22799224706,2.88049350655901,4.51163171468165,4.36640910438066,1.65782139159831,1.45265507597994,0.880247432088108,8.29724284132863,20.3548207289212,19.0655284668183,2.74837176644095,2.11020676977029,0.774835541697708
walking,1.47323425426,9.62104936224,-0.91227965202,0.15490570218,0.05820007525,-0.2025283818,2.61485460535865,4.36162196477018,3.64519221367807,1.61913860154183,1.40062517387516,0.927415164635758,6.83746460716532,19.0237461635657,13.2874262746592,2.62160981100284,1.96175087769283,0.86009888759637
walking,1.50129882726,9.75644484964,-0.26508056535,0.08146209602,-0.03445892267,-0.12876434548,2.65576129609756,3.80485651129972,3.32946307736888,1.67342366811166,1.42676364772537,0.978380776711149,7.05306806184981,14.4769330715799,11.0853243835627,2.80034677299627,2.0356545064706,0.95722894423791
walking,1.50636901696,9.7155262743,-0.46286560228,-0.1988006656,-0.11305084163,0.06176605089,2.43711181257536,3.58957259377545,3.76460845890343,1.55814784759037,1.20113855425634,0.825780467235681,5.93951398699435,12.8850314059838,14.1722768488473,2.42782471495049,1.442733826521,0.681913380067979
walking,1.24633727866,9.3075068658,-1.17285888838,-0.3970642134,0.01605224379,0.11289672291,2.16995783621246,4.09997861394789,3.98730713482067,1.51420248095037,1.23094667289052,0.798840602209535,4.70871701093984,16.8098246348301,15.8986181873918,2.29280915331625,1.51522971150025,0.638146307738493
walking,1.40422730164,9.31950988142,-1.14065247116,-0.056399535,0.02403106301,-0.1186492959,2.78651190798741,4.31225778683673,4.25251917410478,1.66431402475807,1.45498575348976,0.943480675018538,7.76464861335561,18.595567220134,18.0839193261288,2.76994117300641,2.11698354285817,0.890155784133436
walking,1.61891296644,9.58168393562,-1.0898077425,0.29102631158,0.07883605675,-0.27115478573,2.84976679956325,4.53249677144316,4.28867352643595,1.58964821426603,1.37323110082945,0.914214635571166,8.12117081189298,20.5435269831426,18.3927206163526,2.52698144511919,1.88576365628527,0.83578839989252
walking,1.61374754643,9.5813506729,-0.7085675011,0.19416962285,0.14774017359,-0.20469665715,2.76545892505497,4.639293768044,3.87861032706137,1.66567014154641,1.43593529360303,0.941034412600664,7.64776306616618,21.5230466662119,15.0436180691871,2.77445702043922,2.06191016741483,0.885545765698677
walking,1.71046203163,9.7561413302,-0.0400878917,0.01741791103,-0.10235900788,-0.08145751942,2.88467962052312,4.05667050744808,3.68474012412373,1.74150663607097,1.55751215790464,1.02296628755801,8.32137651306141,16.456575605999,13.5773097823274,3.03284536347921,2.42584412202077,1.04646002548021
walking,1.62038880234,9.8093902354,-0.51354370482,-0.25174712954,-0.15313720848,0.08321380874,2.61139719770181,3.61652725530655,4.03147918865358,1.59824884104897,1.28519630752977,0.887206157322784,6.81939532416487,13.0792693883751,16.2528244485469,2.55439935791438,1.65172954888815,0.78713476559146
walking,1.38037597801,9.3621423159,-1.13831969225,-0.4365951538,-0.01993255919,0.1309158378,2.36578254664127,4.11362969854219,4.14299506088849,1.51329718615979,1.29970449506804,0.829097483304298,5.59692705799246,16.9219492967283,17.1644080745464,2.29006837363913,1.68923177450007,0.687402636821521
walking,1.51420043809,9.2425762901,-1.04677061113,-0.07012481605,-0.04116669134,-0.08800506267,2.63522789279351,4.38317385064092,4.24959447478339,1.66156376937567,1.5062702383682,0.981931962676272,6.94442604695692,19.2122130049423,18.0590532001096,2.76079415970189,2.26885003099378,0.964190379325277
walking,1.67435181167,9.5035780458,-1.12187131405,0.27947998465,0.02899780016,-0.28008422837,2.72799090651552,4.27813061238487,4.18540038043258,1.57226879262575,1.43247496251927,0.906869856279823,7.44193438603139,18.3024015366245,17.5175763445252,2.47202915626484,2.05198451824458,0.822412936228987
walking,1.62626830775,9.3743714925,-0.6989031853,0.1680435201,0.03790588461,-0.19683532584,2.65423014739702,4.24546254534463,3.65503342324341,1.63022566889354,1.41918194377753,0.924192512347178,7.04493767535118,18.0239522239241,13.3592693250265,2.6576357315194,2.01407738954416,0.854131799878588
walking,1.68932433964,9.7858483863,0.00342529432,0.0528259226,-0.08068694505,-0.06545714894,2.81817516071775,4.05243044697266,3.60169912785054,1.80791869327847,1.32337757403873,1.01164180144831,7.9421112364865,16.422192527551,12.9722366075593,3.26857000150572,1.75132820346862,1.02341913443759
walking,1.48028015495,9.9117402736,-0.51801880163,-0.19780731457,-0.0644409155,0.0709945745,2.54138962851066,3.95626764665095,4.02351204894436,1.65499701465139,1.066958082193,0.863747028838952,6.45866124390156,15.652053691937,16.1886492080004,2.73901511850501,1.13839954915696,0.746058929828118
walking,1.22741332771,9.2480452106,-1.1932824696,-0.41084289661,0.03629303182,0.0770721499,2.19201497659694,4.13519482622067,4.1300648901708,1.47144516659957,1.32711194841876,0.857204060632366,4.80492965762529,17.0998362508022,17.0574359970216,2.16515087830925,1.76122612363584,0.734798801564616
walking,1.38696960774,9.227722792,-1.185974723,-0.09795990249,-0.01919555018,-0.11494292885,2.65848180333875,4.31821995713424,4.23406693728,1.63131804763715,1.59418309444858,1.02409500296472,7.06752549868325,18.6470235981924,17.9273228293676,2.66119857254668,2.54141973862565,1.0487705750973
walking,1.46473632944,9.3789894517,-1.10818419897,0.17116241417,0.03623962566,-0.2173217765,2.8808124947337,4.4072234164986,4.11053526237021,1.61141651222037,1.36766498865249,0.958010067594203,8.29908062981382,19.4236182429335,16.896500143189,2.59666317585646,1.87050752118581,0.91778328961185
walking,1.3910876466,9.4134988533,-0.99404540617,0.22842407282,0.1413101184,-0.25487670843,2.68069023568317,4.46487085213599,4.03857652791761,1.66785439738942,1.30016291876786,0.913013964191998,7.18610013968711,19.9350717262536,16.310100371847,2.78173829089121,1.69042361533897,0.833594498809587
walking,1.6734234642,9.3572089979,-0.2846948246,0.12333221778,0.02039947246,-0.17073058709,2.58550070393182,4.47265198395881,3.50192078089908,1.8042893501006,1.42315676207438,0.978258373730147,6.68481389003192,20.0046157696107,12.2634491556928,3.25546005888644,2.02537516943804,0.956989445773151
walking,1.85176086873,10.0514680623,-0.03109008626,-0.04823913933,-0.19563751049,-0.02414245331,2.66350777697436,3.90758182773598,3.44175978033477,1.69312144457831,1.4162242737232,0.887493963310441,7.09427367800288,15.2691957404525,11.8457103855301,2.86666022609093,2.00569119348281,0.787645534912474
walking,1.39768127961,10.0030750931,-0.86755249836,-0.34226990201,-0.11702422549,0.14468383649,2.21860050875691,3.71083552672484,3.85605197534447,1.46821838232853,1.25665634593732,0.730750469715791,4.9221882174564,13.7703003064032,14.869136836558,2.15566521820741,1.57918517178454,0.533996248989849
walking,1.22048645094,9.15657346988,-1.32363160556,-0.36597137327,0.09106598426,0.08311767365,2.25054683927825,3.98043051081036,3.87902889341238,1.48226864599434,1.44693945383589,0.904509724694762,5.0649610757853,15.84382705139,15.0468651559281,2.19712033889789,2.0936337830669,0.818137842067395
walking,1.27216429985,9.30420411378,-1.0889746102,-0.16686401598,-0.09733886641,-0.07738800386,2.8169935227771,3.81960604288997,3.92187111958264,1.6141559073557,1.66473779164142,1.0407906428305,7.93545250736814,14.5893903228816,15.3810730786164,2.60549929325129,2.77135191491914,1.08324516220353
walking,0.81660887559,9.653975842,-0.67714660527,0.04603271173,-0.07386169864,-0.15811615234,2.7774772480985,3.71228267444982,3.71045593337088,1.44543635555646,1.5301483514779,1.04219435004514,7.71437986370481,13.7810426550203,13.7674832334871,2.08928625796435,2.34135397753054,1.08616906326601
walking,0.5487695315,9.832479872,-0.57162475595,0.11699828599,0.06441650181,-0.18661346412,2.8242540005868,3.75488462437701,3.38062884930292,1.22762689123834,1.22929499953136,1.1011893261951,7.97641065983057,14.0991585423829,11.4286514167392,1.5070677840915,1.51116619587282,1.21261793212602
walking,0.98275879281,9.398752452,0.08183472074,0.032937614,-0.10217742613,-0.0911880495,2.68873673799942,3.4038648461916,2.66365205468662,1.2372982819577,1.32585513165298,1.15597663179032,7.22930524626778,11.586295891139,7.09504226843624,1.53090703853547,1.75789183013054,1.3362819732453
walking,1.17813964601,9.830599344,0.47495301092,-0.03559265672,-0.30386962383,0.03544769284,2.56590700171591,2.84006267921028,2.76389296924722,1.2250334644253,1.4312076058518,1.13549862129353,6.58387874145471,8.06595602184306,7.63910434545419,1.50070698896185,2.04835521104805,1.28935711895952
walking,0.7598608393,10.002343105,-0.15836852456,-0.27145385807,0.00182495317,0.22885131867,2.57819386954526,3.06131339091432,3.18272919877317,0.981073548663626,1.04107976889717,0.956782765386242,6.64708362896074,9.37163967739134,10.1297651527233,0.962505307887439,1.08384708520699,0.915433260140144
walking,0.5635040341,9.34874085,-0.45241576872,-0.25059356367,0.19364776837,0.13532715003,2.67311325298466,3.34892643078286,2.90456478170604,0.971862303794847,1.12717535655174,1.01261015623059,7.14553446328221,11.215308238796,8.43649657112707,0.944516337537427,1.27052428441754,1.02537932850133
walking,0.6981854265,9.566759047,-0.4129968239,0.03993378063,-0.09781951643,-0.17519531037,3.04383785214065,3.49061168363493,3.08708804015374,1.13261956302712,1.41680757618025,1.15053644732051,9.26494887012418,12.1843699259287,9.53011256766028,1.28282707455175,2.00734370792175,1.32373411661289
walking,0.7241076626,9.714984706,-0.4004522649,0.11864319313,-0.13598327423,-0.22653961231,2.92180794525675,3.63247270459444,3.12865548619162,1.09050940507335,1.43819021690623,1.12987096672493,8.53696166896546,13.1948579496237,9.78848515127689,1.18921076255344,2.06839110000478,1.27660840144792
walking,1.1457665991,9.527506698,0.25450684308,0.04436645976,-0.05010681123,-0.14174194442,2.40118179095119,3.39140267912346,2.6256879692012,1.12060332249227,1.36356056640928,1.1381104223557,5.76567399319555,11.5016121319658,6.89423731160794,1.25575180638072,1.85929741826639,1.29529533347468
walking,1.04764770311,9.764115626,0.33755798039,-0.15176086477,-0.04359131025,0.07785186638,2.11416423529863,3.06210756880707,2.63396192847981,1.00821752140046,1.10722712951951,0.953076806522541,4.46969041381586,9.37650276294553,6.93775544068107,1.01650257045888,1.22595191634401,0.908355399131204
walking,0.34769958729,9.668020021,-0.54729736469,-0.25921325661,0.05220794508,0.10280303902,2.01323542069226,3.0309948700587,3.0067490851339,0.863705691773309,1.01364093320481,0.863342401839483,4.05311685912994,9.18692990232215,9.04054006095353,0.74598752200161,1.02746794146832,0.745360102813968
walking,0.40939880296,9.51693786,-1.0288226249,-0.02032928411,0.2306365969,-0.14114379776,1.60162486384355,2.73885597747013,2.63736315456618,0.936666318979197,1.04716234076901,0.935675233606221,2.56520220448186,7.50133206532387,6.95568440906326,0.877343793110038,1.09654896792483,0.875488142784057
walking,0.90242126218,9.77575564,-0.55493835074,0.25065155013,0.5782440222,-0.19241332949,1.13174179909127,1.68162974010844,1.93651097346162,0.859794675472868,0.99584873669502,0.72223513356872,1.28083949981034,2.82787858281717,3.75007475033727,0.739246883971495,0.991714706377067,0.521623588161027
walking,1.6156042553,9.716674846,0.05653137226,0.14829406923,1.2009338436,-0.09010925303,1.06985077644761,0.763669534389266,1.20939165194353,0.61093411258318,1.01225294426088,0.401869300024398,1.14458068386556,0.583191157754318,1.46262816779069,0.373240489917798,1.02465602316482,0.1614989343021
walking,2.1812042309,9.592038589,-0.30978393548,0.0135833742,0.7230163602,0.00334014954,0.895042939450601,0.642847910590376,1.11256948683073,0.316781602716685,1.13668445554529,0.201123382529289,0.801101863460373,0.413253436150413,1.23781086302679,0.100350583819752,1.29205155147829,0.040450615000023
walking,2.322407837,9.527958979,-0.42399414168,0.01457672106,-0.05754089386,0.02461701144,0.371679761286796,0.454930765909065,0.738498373467066,0.231062805154095,0.295890938967854,0.115308712761967,0.138145844950209,0.206962001770608,0.545379847613502,0.053390019925679,0.087551447763278,0.013296099238822
standing,2.403649904,9.535814195,-0.16993713687,-0.01564026534,-0.00093077797,0.0049102881,0.155712283143166,0.098927556348345,0.143490731433526,0.046731125478891,0.054044643889693,0.028830805003314,0.024246315121657,0.009786661405055,0.020589590007328,0.002183798088524,0.002920823533164,0.000831215317139
standing,2.401983641,9.529363395,-0.11768799047,-0.00470277603,-0.00354766027,0.00095825766,0.088480815169793,0.061634657164696,0.077459652112078,0.018321918671344,0.032307911875004,0.014908091182462,0.007828854653111,0.00379883096381,0.005999997705324,0.000335692703799,0.001043801169723,0.000222251182705
standing,2.379822386,9.52588806,-0.1033105492,-0.00814210327,-0.00729674353,0.00408784435,0.079625603681298,0.051828787074341,0.072715628147071,0.013498479700161,0.028802775343661,0.011052580178719,0.006340236761611,0.002686223169597,0.005287562576823,0.000182208954216,0.000829599867497,0.000122159528607
standing,2.434142464,9.517223495,-0.05589355718,-0.003463767,-0.00341947342,0.00361788163,0.065107636876028,0.0467080180234,0.052282948952988,0.01194960202701,0.023553720169346,0.007614482739881,0.004239004379581,0.002181638947674,0.002733506751221,0.000142792988604,0.000554777733816,5.79803473959488E-05
standing,2.439260261,9.518889745,-0.08236328128,0.00268857676,-0.00238340281,0.00178072516,0.039269304762176,0.038060739744472,0.05179484561139,0.007480388824899,0.010016615829219,0.006028981374392,0.001542078296505,0.001448619909896,0.002682706031908,5.59562169716797E-05,0.00010033259267,3.63486164127608E-05
standing,2.4119574,9.523531465,-0.1617010502,0.0022613396,-0.00514980947,-0.00128475187,0.043482107114232,0.045492533123372,0.068232624695364,0.009083861361845,0.011336840570016,0.006458709886799,0.001890693639094,0.002069570569981,0.004655691072818,8.2516537241229E-05,0.00012852395411,4.17149334018354E-05
standing,2.389558103,9.529339585,-0.18640930311,-0.00555726558,-0.00864255101,-7.77754399999998E-05,0.054642594994578,0.042698632065181,0.056416849578326,0.009828457248304,0.025391532447453,0.007279312806405,0.002985813187742,0.001823173180238,0.003182860916343,9.65985718817424E-05,0.00064472992003,5.29883949334954E-05
standing,2.34007019,9.539789445,-0.16070129445,-0.00673218786,-0.00529936435,0.00095830664,0.112794775687871,0.04498826686077,0.063979747830972,0.013619543901105,0.050267117306392,0.008093358796886,0.012722661422477,0.002023944155136,0.004093408132515,0.000185491976074,0.002526783082295,6.55024566151322E-05
standing,2.354519039,9.5465259,-0.14979919459,-0.0089752348,-0.00861052562,0.00442966416,0.213185520016176,0.096830036739405,0.247566323170242,0.061390282287796,0.165336156777038,0.037625353670315,0.045448065944567,0.009376056014955,0.061289084368033,0.003768766759375,0.027336044737801,0.001415667238816
standing,2.4222406,9.52874452,-0.09102783241,-0.01003267787,-0.00697630485,0.00704652706,0.185953626473039,0.09599010464176,0.249963898252193,0.060534973853209,0.160446062172973,0.037492139593554,0.034578751198474,0.009214100189136,0.062481950429433,0.003664483059409,0.025742938866814,0.001405660531303
standing,2.414718632,9.516390385,-0.033375244,-0.00229952148,0.00180360754,0.00131075782,0.047164766178778,0.036193339791625,0.053960015510972,0.00876053165491,0.018298381925714,0.008608680693378,0.002224515168699,0.001309957845272,0.002911683273944,7.67469148766845E-05,0.000334830781099,7.41093832805383E-05
standing,2.38025085,9.5282922,-0.06110656992,-0.00014192191,-0.00277861258,-0.00093226358,0.045842297777863,0.033596963101844,0.059947745184833,0.007364363603537,0.011279843702054,0.004974490802915,0.002101516265554,0.001128755929667,0.003593732152746,5.42338512851044E-05,0.000127234873943,2.47455587482879E-05
standing,2.376965943,9.526982975,-0.07179443838,-0.00515138728,-0.00025785114,0.00570072241,0.049125086460463,0.037727821438587,0.050646781615728,0.008007549416265,0.012600719766109,0.005617493942418,0.002413274119748,0.001423388510502,0.002565096488031,6.41208476539304E-05,0.000158778138624,3.15562381931028E-05
standing,2.410433961,9.51838986,-0.02759094691,-0.00515140011,4.12363200000002E-05,0.00491029712,0.047042033064827,0.032191946511784,0.045184634780798,0.007094932828921,0.008836502463605,0.006109903847104,0.002212952874872,0.001036321420218,0.002041651220274,5.03380718469038E-05,7.8083775789292E-05,3.7330925020859E-05
standing,2.418051144,9.51653322,-0.02579971546,-0.0016373189,-0.0022658891,0.00118261817,0.038353248224177,0.033568327117407,0.045255221162355,0.005541751802001,0.006418361636268,0.003784345450093,0.001470971649345,0.001126832585461,0.002048035042454,3.07110130349781E-05,4.11953660939137E-05,1.43212704856369E-05
standing,2.402221673,9.51888976,-0.03715408345,-0.00155188383,-0.00169977854,0.00148172401,0.035583336189494,0.033063537761795,0.040010675467059,0.004193745315099,0.005311336835966,0.002731182010528,0.001266173814375,0.001093197529326,0.00160085415133,1.75874997679109E-05,2.82102989850878E-05,7.45935517462904E-06
standing,2.388986815,9.522055635,-0.04158752454,-0.00282292257,-0.00158229527,0.00299841126,0.040763921804269,0.032140557230627,0.039115946577834,0.00447916199879,0.005384843732412,0.004302995472554,0.001661697320865,0.001033015419095,0.00153005727668,2.00628922114087E-05,2.89965420225016E-05,1.85157700368225E-05
standing,2.410195929,9.5159619,-0.0280670187,-0.00558931068,-0.00093076965,0.00606385242,0.047813753549541,0.033354806828411,0.046351375039181,0.004512993471432,0.006287978430148,0.003803496122473,0.002286155028496,0.001112543138561,0.002148449968023,2.03671100731872E-05,3.95386727380028E-05,1.44665827536659E-05
standing,2.440831305,9.51201047,0.0139941341,-0.00362397191,-0.00109098932,0.00231478047,0.040835133254283,0.027993410396744,0.044452725791128,0.00647554441003,0.00720183359759,0.006545847333805,0.001667508107895,0.000783631025641,0.001976044830261,4.19326754062653E-05,5.1866407167369E-05,4.28481173174768E-05
standing,2.414147343,9.522484115,0.00118773966,-0.00025941055,-0.00213773989,0.00060582176,0.055611633996941,0.033983431124657,0.057962264395238,0.007846809406027,0.008810857855211,0.007001126711942,0.00309265383581,0.001154873591004,0.003359624093823,6.15724178545109E-05,7.76312161447389E-05,4.90157752366744E-05
standing,2.401126713,9.523150645,-0.01687927461,-0.00278017089,-0.00299223319,0.00267797443,0.044301107672817,0.033857396889794,0.050970806711917,0.007722930766391,0.00894017968048,0.006171178390106,0.001962588141039,0.001146323324153,0.002598023136864,5.96436596224739E-05,7.9926812719259E-05,3.80834427225127E-05
standing,2.397199101,9.51998476,-0.01171386925,-0.00221407669,-0.00281065243,0.00078741332,0.038064929985308,0.033065258549371,0.042590047318492,0.006602567866073,0.007343567899484,0.005197265939117,0.001448938894786,0.001093311322937,0.001813912130591,4.35939024260981E-05,5.39279894943253E-05,2.70115732419048E-05
standing,2.375275879,9.525031105,-0.02909057611,-0.00012057758,-0.00363309295,0.00041361915,0.03446042545491,0.03326172062303,0.047120508107615,0.005638162551682,0.007293556097202,0.003986855507429,0.001187520922533,0.001106342058805,0.00222034228432,3.17888769591906E-05,5.31959605430373E-05,1.58950168371194E-05
standing,2.367539673,9.53005371,-0.0486572286,-0.00251315614,-0.00247951207,0.00149242408,0.034689893470551,0.0294316164004,0.049769629123563,0.005223167362733,0.00734130653667,0.003038227177677,0.001203388708998,0.00086622004394,0.002477015983097,2.7281477299115E-05,5.38947816653464E-05,9.23082438317248E-06
standing,2.371800536,9.52807805,-0.05886902065,-0.00288699419,-0.00213769761,0.00394902702,0.036590571956176,0.033592862950553,0.042280868727462,0.00553389501637,0.006215653171377,0.003665021490261,0.00133886995608,0.001128480441215,0.001787671860349,3.06239940521991E-05,3.8634344346849E-05,1.34323825240739E-05
standing,2.38548767,9.5259833,-0.05317993173,-0.00281222845,-0.00119776325,0.00345771334,0.039895237855774,0.035679980483784,0.037511114672422,0.006099283999745,0.009062468943349,0.003830021322427,0.001591630003569,0.001273061007323,0.001407083723968,3.72012653095416E-05,8.21283433491669E-05,1.46690633302491E-05
standing,2.37875122,9.52795896,-0.02137817596,-0.00954134217,-0.01385495241,-0.00127403599,0.076825695303974,0.056479528434382,0.163091119981347,0.069626780930396,0.072091809619884,0.017316518424053,0.005902187458939,0.00318993713217,0.02659871341677,0.004847888622729,0.00519722901427,0.000299861810331
standing,2.355328366,9.533171951,-0.05006164787,-0.00577088296,-0.01984710036,0.00395967911,0.207534246024062,0.285086207274385,0.252932060586053,0.075587857381638,0.127133907222833,0.029539435520335,0.043070463272776,0.081274145578094,0.063974627272307,0.005713524183547,0.016163030365744,0.00087257825086
standing,2.420669552,9.512272296,-0.00371582107,0.00818937976,0.06165008593,0.01826172968,0.399788404366592,0.308123586852424,0.515542847885585,0.062952896898161,0.247092443523112,0.037519638220981,0.159830768265986,0.094940144774803,0.265784428005979,0.003963067227871,0.061054675646222,0.001407723252233
standing,2.547781372,9.475328985,0.0888330074,0.01297453438,0.06783447343,0.01031496886,0.355401925592769,0.128337069543635,0.473227333181676,0.056335278483285,0.223694801335283,0.033844417913494,0.126310528715048,0.016470403419048,0.223944108870241,0.003173663601789,0.050039364144432,0.001145444623903
standing,2.475703734,9.496014425,0.02499145501,0.00853116329,0.00496521688,-0.01202996728,0.174420910965255,0.047908635285521,0.097355296957114,0.013696628809934,0.046706233802657,0.032409292088189,0.03042265418195,0.002295237334921,0.009478053845608,0.000187597640757,0.002181472276028,0.001050362213658
standing,2.340760493,9.530077495,-0.03692199715,0.00241084887,0.00295717675,-0.00931693641,0.09038273347216,0.035029177030107,0.064632137707453,0.011214832605484,0.035164895215911,0.031868393540348,0.008169038509899,0.001227043243407,0.004177313224635,0.000125772470369,0.001236569855546,0.001015594506843
standing,2.342950438,9.533029155,-0.04506286837,-0.00144504431,0.0009811684,0.0036819873,0.036477656411207,0.032846049674976,0.059671516314987,0.006138089138805,0.009852206079898,0.003803520053826,0.001330619417254,0.001078862979251,0.00356068985933,3.7676138275918E-05,9.70659646407876E-05,1.44667647998579E-05
standing,2.324074096,9.540455935,-0.03970703354,-0.00078281169,0.00511476611,-0.0125427205,0.14577057219089,0.038602514924788,0.070182562724033,0.01013268078792,0.029012021166319,0.035049117728457,0.02124905971686,0.001490154158518,0.004925592110513,0.00010267121995,0.000841697372155,0.001228440653543
standing,2.20146118,9.566782865,-0.02244934092,-0.00447847914,-0.00574797761,-0.00977629803,0.175087001078058,0.060942440921695,0.075427315131367,0.016045350210064,0.041675633048848,0.037028337293939,0.030655457946508,0.003713981105494,0.005689279867927,0.000257453263364,0.001736858390022,0.001371097762754
standing,2.126955563,9.58684941,-0.02347290256,-0.00836640068,-0.01027679439,0.0086593833,0.065495618086909,0.054838156753055,0.064947656968347,0.013622231479048,0.030362440896884,0.007012091271516,0.004289675988586,0.003007223436073,0.004218198145678,0.000185565190469,0.000921877817217,4.91694240000747E-05
standing,2.17442016,9.579494055,0.02004028103,-0.00589904781,0.0002655112,0.00612796106,0.052927348786468,0.035048390029012,0.077703342018224,0.007900202780414,0.012566216303613,0.004042289878942,0.002801304249564,0.001228389643626,0.006037809360801,6.24132039716635E-05,0.000157909792189,1.63401074653995E-05
standing,2.208507075,9.56994873,0.06210143826,-0.00282288326,0.00153658007,0.00454717784,0.035501663476017,0.02859230100057,0.052143066823605,0.006550083003538,0.01112350544396,0.003997897677811,0.001260368109564,0.000817519676507,0.002718899417771,4.29035873532318E-05,0.000123732373362,1.59831858422461E-05
standing,2.21191101,9.57109128,0.05134216099,-0.00278016652,-0.00370786804,0.00295568384,0.036435459492372,0.025548147137082,0.048507685150174,0.005840088347914,0.012058096433547,0.002259355248538,0.00132754270842,0.000652707822138,0.002352995518628,3.41066319114422E-05,0.000145397689601,5.10468613909499E-06
standing,2.223384402,9.56590208,0.06045898454,-0.00551453986,-0.00451963799,0.00316929948,0.038528603202178,0.024204500884323,0.050196649600424,0.004482469270371,0.010747006000992,0.002099687052125,0.001484453264711,0.000585857863059,0.002519703631108,2.00925307598225E-05,0.000115498137985,4.40868571685975E-06
standing,2.235928961,9.559617905,0.07745483425,-0.00433961803,-0.00162503631,0.0032333767,0.029763334522193,0.025672729899908,0.049739584845091,0.004241256082413,0.007948771538062,0.001736583266734,0.00088585608188,0.000659089060514,0.002474026300562,1.79882531566067E-05,6.31829689642994E-05,3.01572144230211E-06
sit_down_chair_1,2.0550207522,9.413677327,-0.58090820228,0.18079680122,-0.10614012202,-0.08625335449,0.693974710871803,1.13944425522244,1.38107321463097,0.308294462723839,0.398148267814369,0.193505277888216,0.481600899329602,1.29833321075943,1.90736322417113,0.095045475746181,0.158522043163582,0.037444292570596
sit_down_chair_1,0.63182067665,8.009258394,-4.02739989337,0.57823181012,-0.08918914817,-0.25570983927,1.56204632030989,2.31095759678315,3.5674891089854,0.454607720073708,0.471610723291715,0.20345110745953,2.43998870679367,5.34052501412975,12.7269785427295,0.206668179150614,0.222416674323734,0.041392353126509
sit_down_chair_1,-1.85864257655,4.619990844,-7.953060285,0.43753967183,-0.0452468845,-0.18192443828,1.45337652205905,2.68525004525552,2.2166868621401,0.488338397628843,0.268883361629003,0.190142130129388,2.11230331487247,7.21056780554475,4.91370064478452,0.238474390598706,0.072298262160913,0.036154029650141
sit_down_chair_1,-3.353825077,1.98211120325,-9.157789925,0.06576080029,-0.07657470149,-0.01040648998,0.450210328754166,0.773472690784207,0.47405958644098,0.158947048760184,0.117650023644331,0.108304383239733,0.202689340116934,0.598260003388961,0.224732491496593,0.025264164309572,0.013841528063512,0.011729839428939
sit_down_chair_1,-3.604192505,1.55450133525,-9.21894168,0.01998138093,-0.0186614829,0.01165010025,0.255622350739939,0.441630850013072,0.441317478027992,0.118839509051156,0.077443138321111,0.071718763692771,0.065342786197813,0.195037807683269,0.194761116412988,0.01412282891152,0.005997439673023,0.00514358106562
sitting_chair_1,-3.627948603,1.645098269,-9.189758315,-0.00576020131,-0.0053420716,0.0105072403,0.094172178527942,0.07585867536651,0.267128634896032,0.019562017249903,0.018735057250906,0.021448252865828,0.008868399208698,0.005754538628362,0.071357707581418,0.000382672518886,0.000351002370195,0.000460027550997
sitting_chair_1,-3.645349111,1.665140995,-9.15102966,-0.0044464246,-0.00312036732,0.0038849583,0.024617808858173,0.030806871801414,0.036566380188367,0.0042853200856,0.002984193316399,0.004825382400688,0.000606036512978,0.000949063350189,0.00133710016008,1.83639682360468E-05,8.90540974963796E-06,2.32843153128718E-05
sitting_chair_1,-3.646087027,1.674567258,-9.14436461,-0.00478821873,-0.0025115264,0.00204782502,0.022643483422852,0.025440436461233,0.037904255664739,0.00268079990658,0.002538505928117,0.00188219212157,0.000512727341521,0.000647215807338,0.001436732597498,7.18668813911828E-06,6.44401234708729E-06,3.54264718249844E-06
sitting_chair_1,-3.646872552,1.676019282,-9.146102305,-0.00468140667,-0.00231927612,0.00164195946,0.023035101989033,0.027570098254898,0.033829890620925,0.002270720177567,0.002540402350456,0.001701198239256,0.000530615923645,0.000760110317785,0.001144461499424,5.15617012481172E-06,6.45364410220247E-06,2.89407544924898E-06
sitting_chair_1,-3.645230097,1.680399166,-9.147482915,-0.00608063197,-0.00188135115,0.00242164834,0.037408934476933,0.035689846899709,0.047900443603314,0.007934251753479,0.003533427658999,0.003045705772148,0.001399428378699,0.001273765171725,0.002294452497394,6.29523508875859E-05,1.24851110213796E-05,9.27632365049358E-06
sitting_chair_1,-3.640040893,1.68939697,-9.14386473,-0.00334625245,-0.00338741243,0.00280613115,0.080052536011737,0.061962160472201,0.06544452757768,0.015941396985561,0.006397912632729,0.005962778356209,0.00640840852191,0.003839309330383,0.004282986189866,0.000254128137851,4.09332860560293E-05,3.55547257252785E-05
sitting_chair_1,-3.644301758,1.683446041,-9.14522155,-0.00031282018,-0.00354764383,0.00190890813,0.082098211371311,0.064096091332115,0.059412927391221,0.014365910027721,0.006664988584147,0.006665104628835,0.006740116310369,0.004108308924055,0.003529895941194,0.000206379370925,4.44220728268116E-05,4.44236197133146E-05
sitting_chair_1,-3.644611203,1.66309387,-9.152172215,-0.00264132155,-0.00223384563,0.00206913563,0.049134872930232,0.042033728399892,0.039296566335353,0.007454809175505,0.004281857106503,0.004562985022885,0.00241423573787,0.001766834323196,0.001544220125749,5.55741798431985E-05,1.83343002805105E-05,2.08208323190756E-05
sitting_chair_1,-3.636684564,1.65783325,-9.154266985,-0.0043182688,-0.00216973162,0.00234686898,0.036549621760346,0.03463939382494,0.03261907858779,0.006171412105455,0.002910075522653,0.003048833457639,0.001335874850824,0.001199887604559,0.001064004287916,3.80863273753613E-05,8.46853954754553E-06,9.29538545241881E-06
sitting_chair_1,-3.63206665,1.666093139,-9.15686161,-0.00469210349,-0.00205223538,0.00210123673,0.027268428064281,0.02835506630561,0.036618362263232,0.003951176523166,0.002468514615249,0.002754836427899,0.000743567169097,0.000804009785196,0.001340904454841,1.56117959172162E-05,6.09356440569974E-06,7.58912374447947E-06
sitting_chair_1,-3.625211184,1.66892578,-9.160075075,-0.00429689067,-0.0024474427,0.00215464701,0.027297882766587,0.025805726850696,0.038726064577537,0.002705016126317,0.002322794415765,0.002144848532158,0.000745174403538,0.000665935538293,0.001499708077664,7.31711224363453E-06,5.3953738979112E-06,4.60037522589829E-06
sitting_chair_1,-3.627781984,1.671020506,-9.158837285,-0.00235905628,-0.00182339783,0.00121771744,0.029804756800222,0.027789282167178,0.036869753765774,0.004184683528244,0.002635151665692,0.002396530020293,0.00088832352792,0.000772244203367,0.001359378742749,1.75115762315526E-05,6.94402430120119E-06,5.74335613816629E-06
sitting_chair_1,-3.628472289,1.674781495,-9.159741815,-1.683786E-05,-0.0003677618,-0.00014038755,0.033412011160864,0.032009522333157,0.041050543591343,0.005178369607092,0.003018628398482,0.003109345851962,0.001116362489814,0.001024609519997,0.001685147129145,2.68155117876535E-05,9.11211740812063E-06,9.66803162711473E-06
sitting_chair_1,-3.622069087,1.674876712,-9.156290265,0.00072930993,0.00023953077,-0.00048675135,0.030054880283728,0.030011820194421,0.038117078611311,0.004214675072386,0.002409486518898,0.002797943499106,0.000903295828869,0.000900709351382,0.001452911681861,1.77634859657882E-05,5.80562528475115E-06,7.8284878241875E-06
sitting_chair_1,-3.620355218,1.672877201,-9.156290265,0.00059043236,-4.886076E-05,-0.00030513219,0.024440478128138,0.026072268967949,0.02835473312666,0.002528057280476,0.001643664529677,0.001754169275527,0.000597336971132,0.000679763209137,0.000803990890684,6.39107361336985E-06,2.70163308611964E-06,3.07710984720365E-06
sitting_chair_1,-3.620474242,1.672234496,-9.161693725,0.00059044923,-8.089476E-05,-0.00042264887,0.027183603499426,0.026887480008672,0.03716021968323,0.003347846786732,0.002139969705071,0.002374837658244,0.000738948299214,0.000722936581217,0.001380881926906,1.12080781074312E-05,4.57947033862063E-06,5.63985390301571E-06
sitting_chair_1,-3.621212162,1.674210204,-9.15786133,0.00088952687,-3.817584E-05,-0.0005615169,0.025773857404714,0.025431383052938,0.041232568678527,0.003536015967285,0.002122014760884,0.002663588778163,0.000664291725519,0.000646755243985,0.001700124719829,1.25034089208969E-05,4.50294664541105E-06,7.09470517915405E-06
sitting_chair_1,-3.617070312,1.674162597,-9.15505246,0.0006224923,0.00048520091,-0.00082851002,0.030632442002947,0.032659489238766,0.035505524112502,0.002785394073146,0.004584017310624,0.003128662663275,0.000938346503064,0.001066642237337,0.001260642242503,7.75842014271437E-06,2.1013214704103E-05,9.78853006056834E-06
stand_up_chair_1,-3.712261346,1.6623559566,-9.263621185,-0.07592929306,0.11845854795,0.04176793286,0.518656383779121,0.922582073193822,0.822708238514404,0.256360651646594,0.330513785445661,0.209317198275053,0.269004444434835,0.851157681778611,0.676848845719473,0.065720783712666,0.10923936236962,0.043813689493718
stand_up_chair_1,-1.41198973895,4.3699567126,-7.13007079895,-0.67113647646,0.11911010646,0.24866180338,2.68020382512988,3.26931247094229,3.38218602647598,0.682613579043888,0.464580096800076,0.326379069292573,7.18349254424081,10.6884040326588,11.4391823176894,0.465961298295107,0.215834666342768,0.106523296872286
stand_up_chair_1,1.71108093305,8.260530433,-2.52695679551,-0.62895660543,0.01798095681,0.19883422787,1.30474122312858,1.95208482898705,3.48865228835326,0.684458851084031,0.366653709342467,0.291890411883322,1.70234965933106,3.81063517956139,12.1706947890325,0.468483918827272,0.13443494257459,0.085200012549416
stand_up_chair_1,2.364564206,9.484636265,0.06464843454,-0.03749847703,0.00641326825,-0.00530396291,0.276908595757056,0.232040633180844,0.934917362606421,0.132273060946328,0.170790773594831,0.042568091165004,0.076678370404145,0.053842855446967,0.874070474902946,0.017496162652111,0.029169488345121,0.001812042385432
standing,2.323264768,9.52595952,0.25833923302,0.00350646278,0.00108337286,0.00102994488,0.096148986407634,0.05810995805728,0.083345393299669,0.021303597332685,0.044824604647035,0.012785315753846,0.009244627587215,0.003376767225419,0.006946454584277,0.000453843259313,0.002009245181763,0.000163464298926
standing,2.34616394,9.521460585,0.23922485312,0.00808867025,0.0178634644,0.00097654904,0.063746036702634,0.046740743113134,0.072752929612946,0.015748495893487,0.031080595997845,0.009371447044391,0.004063557195294,0.002184697066768,0.005292988767266,0.000248015122907,0.000966003447581,8.78240197058188E-05
standing,2.340998531,9.52386473,0.2344165039,0.00300443183,0.00729980058,0.00191653569,0.060354400613536,0.043647893289288,0.065640315040417,0.012361028069671,0.024110247725689,0.00744634514738,0.003642653673419,0.001905138588593,0.004308650958605,0.000152795014939,0.000581304045394,5.54480560539089E-05
standing,2.358256224,9.51686644,0.21711120595,0.00170131633,0.00217284614,0.00125432723,0.046815289774398,0.034932952834809,0.048531369621051,0.009992604748831,0.012671057960795,0.004924336518983,0.002191671356661,0.001220311193759,0.002355293837295,9.98521496663552E-05,0.000160555709846,2.42490901521915E-05
standing,2.368444222,9.51489074,0.24379516615,0.00028072342,0.00356139675,0.00042116514,0.036215378906463,0.02906890287656,0.049411064827168,0.007163009029115,0.00766792153793,0.004237209153469,0.001311553669339,0.000845001114447,0.002441453327355,5.1308698351178E-05,5.87970207118532E-05,1.79539414102422E-05
standing,2.347235112,9.518366045,0.27212158324,0.00074002798,0.01857909141,-0.00186462834,0.066880451545944,0.046083068369839,0.089758127366878,0.023977385906995,0.044528641722092,0.009648005407587,0.004472994798989,0.002123649190379,0.008056521428409,0.000574915034933,0.001982799933614,9.30840083448218E-05
standing,2.364302372,9.51462889,0.36981201204,-0.00097962527,0.01947630885,0.00518493966,0.095052942850072,0.058584720359225,0.140217931493991,0.025555126427329,0.048615464169129,0.014209391887653,0.009035061944459,0.003432169459569,0.019661068312454,0.000653064486717,0.00236346335638,0.000201906817817
standing,2.371015016,9.5015607,0.4707873533,-0.01282501379,-0.01192627359,0.00723572276,0.120941009244439,0.080304178638525,0.129473063676115,0.034062619262988,0.075130252405854,0.0269126664341,0.014626727717064,0.006448761106808,0.016763274217679,0.001160262031055,0.005644554826567,0.000724291614593
standing,2.393914178,9.482041655,0.5790228269,-0.00641632665,-0.00305023357,0.00070952982,0.161387228646438,0.098338299900197,0.198262819567875,0.039150208321366,0.089305265211425,0.027619693324808,0.026045837570178,0.009670421227261,0.039308145623004,0.001532738811606,0.007975430394483,0.000762847459356
standing,2.422978509,9.46692629,0.6839733884,-0.00127869944,0.00939331009,0.00158538532,0.154229481859299,0.092389874645062,0.343898132469274,0.056269209994067,0.102566637367314,0.024484778107826,0.023786733074588,0.00853588893693,0.118265925515855,0.003166223993356,0.010519915100838,0.000599504358989
standing,2.406411135,9.481613185,0.6643591307,0.00461730248,-0.00145874037,-0.00248413368,0.126733604906924,0.083157942940553,0.334726285425277,0.057078003074924,0.093025738743165,0.025619755500898,0.016061406612704,0.006915243474104,0.112041686154604,0.003257898435021,0.008653788068712,0.000656371871926
standing,2.359874883,9.5059644,0.5357714837,0.01527709159,-0.00012359803,-0.0063079951,0.105424480133111,0.062137770935018,0.150256185787845,0.018205451328698,0.028238809160842,0.014064745646835,0.011114321011337,0.003861102576773,0.022576921367512,0.000331438458082,0.000797430342822,0.00019781707011
standing,2.311124876,9.51251041,0.4597186271,0.00751188842,-0.00065765973,-0.00504761916,0.10353376922767,0.046834053628095,0.085037972319693,0.014825680362026,0.02261021255093,0.011439677858015,0.010719241370489,0.002193428579239,0.007231456736245,0.000219800798197,0.000511221711598,0.000130866229495
standing,2.304078978,9.51758057,0.4601470932,0.00239561216,-0.00036926665,-0.00475922302,0.147984619639371,0.076898668218953,0.122831701737446,0.042476279952659,0.083294162991976,0.032836580812605,0.02189944764981,0.005913405173849,0.015087626951717,0.001804234358617,0.006937917588534,0.001078241039463
standing,2.293081662,9.536932995,0.41082580141,0.00637968434,-3.8146840000004E-05,-0.0020462015,0.199994674778625,0.148647253274329,0.587300892220742,0.171507517617065,0.242329464132782,0.044984756898632,0.039997869939808,0.022096005906003,0.34492233800328,0.029414828599168,0.058723569186882,0.002023628353229
standing,2.280679922,9.55478582,0.40642211501,0.01307677377,0.04679870631,0.00107270264,0.30758376739419,0.166186996333486,0.611440955985589,0.173048654125748,0.266020027930001,0.0484098218491,0.094607773964403,0.027618117750346,0.373860042656571,0.029945836694733,0.070766655259879,0.002343510851462
standing,2.271182244,9.53002993,0.41149230812,0.01711424982,0.09432983354,0.00956421389,0.3858238452367,0.201213326309719,0.435882440087897,0.09273868858965,0.243627612639122,0.066924962595978,0.148860039553233,0.040486802684621,0.189993501576979,0.008600464361328,0.059354413640238,0.004478950618473
standing,2.438093871,9.48285092,0.50330322162,0.00836638197,0.05650787264,0.01903838328,0.347833429715853,0.183017961075977,0.408589407127917,0.081922391196144,0.218893073708981,0.063919484566906,0.120988094827893,0.033495574076408,0.166945303617143,0.006711278179294,0.047914177717765,0.004085700507299
standing,2.604362795,9.44605041,0.6054925524,0.00124205436,0.01111297414,0.01234130885,0.111510316112708,0.068200223306063,0.09575437966227,0.01546719947227,0.059790808413693,0.032390787410472,0.012434550599556,0.004651270458997,0.009168901224506,0.000239234259515,0.003574940770763,0.00104916310907
standing,2.616859745,9.425698235,0.5960424789,0.00520474497,0.00106200979,0.00019686939,0.040808101145242,0.032241884832823,0.071738421037617,0.005755914904471,0.01436463088602,0.004360186598732,0.00166530111908,0.001039539137573,0.00514640105297,3.31305563875152E-05,0.000206342620492,1.90112271757592E-05
standing,2.622858276,9.42948302,0.5643597407,0.00561063034,-0.00166168257,-0.00111691808,0.03203591070071,0.031193504427351,0.063216786613055,0.005524296655936,0.011813390411904,0.003282256095233,0.001026299574424,0.000973034718459,0.003996362109681,3.0517853542791E-05,0.000139556193024,1.07732050746951E-05
standing,2.626904903,9.430101935,0.5293206766,0.00330352213,-0.0008712785,0.00221559554,0.04078192489725,0.03058208538645,0.062809547458572,0.00772227612752,0.011231515096557,0.004283829060135,0.001663165398325,0.000935263946584,0.003945039251951,5.96335485896645E-05,0.000126146931364,1.83511914164603E-05
sit_down_chair_1,2.48413024285,9.324342027,-0.22630432227,0.23506316536,-0.09410705593,-0.09499357351,0.911910969730566,1.14196315502,1.67148306111265,0.370281471988967,0.470553342622539,0.215998344273418,0.831581616714942,1.30407984742323,2.7938556235865,0.137108368498316,0.221420448253244,0.046655284728858
sit_down_chair_1,0.74898253884,6.8296655136,-4.58778690097,0.64331817687,-0.17123565593,-0.24520263564,2.01028555756572,3.29021032073118,4.49684702865367,0.658556897941146,0.501498091571431,0.23496528926678,4.04124802295732,10.825483954646,20.2216331991113,0.433697187825865,0.251500335849787,0.055208687160222
sit_down_chair_1,-1.75373962801,2.984556894,-8.810779447,0.47927703973,-0.14277038646,-0.1033355711,1.34064318743005,2.46497734933932,2.28128204754987,0.665348574891799,0.217022655055444,0.243441565216705,1.7973241560026,6.07611333275592,5.20424778047334,0.442688726110548,0.047098832807314,0.059263795675159
sit_down_chair_1,-2.859993288,1.3195825273,-9.433413115,0.07145996117,-0.06143341102,0.0548522949,0.514258565259255,0.513298734806543,0.263701351496556,0.107484240519685,0.115421926055951,0.087601739083695,0.264461871942508,0.263475591153998,0.06953840278111,0.011552861960093,0.013322221014466,0.007674064690488
sitting_chair_1,-3.048423462,1.1074914579,-9.4510041,-0.00135346804,0.00270689935,0.00936127944,0.072957406023494,0.101345023379493,0.080944682164564,0.028981969041459,0.016283689477809,0.027904446344081,0.005322783093677,0.01027081376379,0.006552041570722,0.00083995452952,0.00026515854301,0.00077865812577
sitting_chair_1,-3.049399412,1.112061769,-9.453027375,-0.0001358323,-0.00047609951,-0.00044400224,0.02864747531952,0.027484605525425,0.03870217134888,0.003820962165447,0.003151100703722,0.004288780516427,0.000820677842182,0.000755403540888,0.001497858067118,1.45997518697769E-05,9.92943564499563E-06,1.83936383180852E-05
sitting_chair_1,-3.048256827,1.116608278,-9.44705257,0.0010070426,-0.00060426981,0.00099795861,0.026752768781714,0.026798136119071,0.03892311147161,0.002605308600114,0.002426091171348,0.002274621323368,0.000715710637488,0.000718140099456,0.001515008606631,6.78763290182764E-06,5.88591837169444E-06,5.17390216471951E-06
sitting_chair_1,-3.053565055,1.121107178,-9.445148255,0.00072934101,0.0003356841,0.0007736385,0.042235373641779,0.031743423482326,0.040622862034216,0.005955186302793,0.004603534002465,0.003794473300039,0.001783826786661,0.001007644934378,0.001650216919851,3.54642439009716E-05,2.1192525311849E-05,1.43980276247063E-05
sitting_chair_1,-3.051422724,1.12513,-9.45112302,0.00039823448,0.00039976108,0.00079501499,0.044637575396011,0.033740253692364,0.041840152237017,0.006267701138631,0.004779457103792,0.004002446962642,0.001992513137235,0.001138404719225,0.001750598339217,3.92840775632024E-05,2.2843210206985E-05,1.60195816887597E-05
sitting_chair_1,-3.044710082,1.122583002,-9.45207519,0.00103373611,-0.00043338724,0.00056541267,0.029100376526234,0.02743691574952,0.036771420777815,0.003517492577347,0.002734745646354,0.0021680441567,0.000846831913969,0.000752784345846,0.001352137386019,1.23727540316937E-05,7.47883375025097E-06,4.7004154653997E-06
sitting_chair_1,-3.04368652,1.12101196,-9.44610047,0.00064003542,-0.00065922408,-6.01849200000001E-05,0.02438590137849,0.026074988200631,0.035837283428709,0.002977863279102,0.002392850202329,0.001697617129756,0.000594672186041,0.000679905009663,0.00128431088355,8.86766970902518E-06,5.72573209078804E-06,2.8819039192422E-06
sitting_chair_1,-3.048280638,1.125153803,-9.44500552,0.00016626911,-0.00030827203,-0.00046686001,0.02804371886218,0.027817857714761,0.037492976532038,0.003052433797778,0.002470985914335,0.002558361630245,0.000786450167621,0.000773833207839,0.001405723289232,9.31735208981521E-06,6.10577138884403E-06,6.54521423111011E-06
sitting_chair_1,-3.045709843,1.130700069,-9.451123065,0.00054012209,-9.18083999999994E-06,-7.56899000000009E-06,0.037193847983676,0.025983577189066,0.036254182691304,0.003256732140266,0.00294333435039,0.003389169453995,0.001383382327833,0.00067514628354,0.001314365762614,1.06063042334444E-05,8.6632170981866E-06,1.14864695878905E-05
sitting_chair_1,-3.040996704,1.13131897,-9.449671,0.00057217618,-0.00065003779,0.0003876656,0.034664373164106,0.024509705873959,0.037350478669468,0.00324323603737,0.003096730082747,0.003079176621966,0.00120161876686,0.000600725682028,0.001395058256838,1.0518579994095E-05,9.58973720539272E-06,9.48132866926127E-06
sitting_chair_1,-3.046566765,1.129938356,-9.44779051,0.00029446954,-0.00043643228,-8.22984800000001E-05,0.023549898719872,0.023633157238376,0.04247687842066,0.003161619316589,0.002793886567287,0.002306290854069,0.000554597729716,0.000558526121054,0.001804285200364,9.99583670302643E-06,7.8058021508657E-06,5.31897750356029E-06
sitting_chair_1,-3.051065661,1.134389647,-9.44524354,4.876661E-05,-0.00037235667,-0.00027455975,0.02008358901855,0.024037464675921,0.039913244256186,0.002923878579202,0.002241408525611,0.002220870419625,0.000403350547866,0.000577799708046,0.001593067067054,8.54906594591662E-06,5.02391217868354E-06,4.93226542076459E-06
sitting_chair_1,-3.048709097,1.135127559,-9.44276795,0.00032648434,-0.00056462115,-0.00010367921,0.02401794182798,0.023906348788183,0.033941888544499,0.002809964575365,0.001920304939864,0.002294969785388,0.000576861529652,0.000571513512382,0.001152051797967,7.89590091480627E-06,3.68757106206463E-06,5.26688631584177E-06
sitting_chair_1,-3.043948352,1.134175414,-9.44283934,0.00075373277,-0.000308284,-0.00014640793,0.028196410334341,0.021696974399769,0.037728495070266,0.00250282919679,0.002103154681295,0.002124767028406,0.000795037555743,0.000470758698104,0.001423439340267,6.26415398830664E-06,4.42325961345293E-06,4.51463492500269E-06
sitting_chair_1,-3.045376577,1.136484374,-9.44372007,0.00062554971,-0.00052189893,-0.00029591853,0.025328562023075,0.020841570132803,0.035340325153851,0.002197441096926,0.002000945811708,0.001817877094107,0.000641536054157,0.000434371045601,0.00124893858198,4.8287473744577E-06,4.00378414139336E-06,3.30467712927864E-06
sitting_chair_1,-3.048756711,1.138126824,-9.4476715,0.00025173566,-0.00074618334,-0.00053089915,0.021531478420229,0.024423859170008,0.037113243179327,0.002657329472457,0.001948048924015,0.001846437383806,0.000463604562961,0.000596524896756,0.001377392819288,7.06139992518596E-06,3.79489461035742E-06,3.40933101231552E-06
sitting_chair_1,-3.046423944,1.137650752,-9.44845703,0.00017696276,-0.00067141944,-0.00064840859,0.022624269291158,0.024744204263301,0.039531604367363,0.00289917437203,0.002106337396564,0.001874036142179,0.000511857560959,0.000612275644624,0.001562747743858,8.40521203943681E-06,4.43665722816591E-06,3.5120114621913E-06
sitting_chair_1,-3.046043082,1.13834106,-9.44836185,0.00033714798,-0.00059666039,-0.00033865146,0.023741548049322,0.023657690866818,0.034618902956063,0.002672397217713,0.002080763241392,0.00168386929004,0.000563661103778,0.00055968633715,0.001198468441881,7.14170688924156E-06,4.32957566672715E-06,2.83541578594098E-06
sitting_chair_1,-3.047875965,1.140031123,-9.447100225,0.00058281493,-0.00044713104,2.45016499999999E-05,0.024077142466069,0.024326655049417,0.035240923677141,0.002573841912579,0.002226520615247,0.002056409785362,0.000579708789331,0.000591786145893,0.001241922701618,6.62466219094793E-06,4.95739405012172E-06,4.22882120533409E-06
sitting_chair_1,-3.04799499,1.141245115,-9.44436274,-0.00059208402,-0.0005218897,-0.00011437006,0.025316129775613,0.026107891474284,0.036184508849774,0.003436938230666,0.002460703090198,0.002523860828536,0.000640906426816,0.000681621997233,0.001309318680699,1.18125444014135E-05,6.05505969810769E-06,6.3698734818177E-06
sitting_chair_1,-3.142091063,1.0751422086,-9.448742635,0.00276182094,-0.01125642719,-0.03173061058,0.273087431056619,0.319847239537554,0.187258445053899,0.059950607340391,0.045391826063213,0.075052738955873,0.074576745001104,0.102302256639794,0.035065725244004,0.003594075320482,0.002060417873353,0.005632913624778
stand_up_chair_1,-2.22000670975,2.26677977656,-9.176975679,-0.46961212464,0.21259917428,0.13024903176,1.61025767000364,2.18636874549739,1.47142075247174,0.683700151005789,0.315053515936979,0.250664784975436,2.59292976380555,4.78020829128784,2.16507903080451,0.467445896485339,0.099258717904252,0.062832834426782
stand_up_chair_1,0.80380248725,6.27449160496,-4.98019103003,-0.74061431983,0.18572540367,0.20697174103,2.40458031157545,3.38766117378652,4.5074958866548,0.742479789738182,0.547941512994455,0.23526402791171,5.78200647481629,11.4762482283806,20.3175191682099,0.551276238169655,0.300239901662653,0.055349162829242
stand_up_chair_1,2.662396234,9.266094409,-0.39228759775,-0.28692169298,-0.0205703725,0.03817749162,0.520408879297748,0.913995986440065,1.80115357134833,0.581790465407109,0.449195562238621,0.157149210901305,0.270825401651938,0.835388663228547,3.24415418758085,0.338480145638621,0.201776653134871,0.024695874486903
standing,2.445473022,9.503369775,0.34086669768,-0.01110230786,0.02044525133,-0.00754851408,0.241765101910037,0.147766701685894,0.267373313588175,0.058406572901629,0.109730894634223,0.034356877115121,0.058450364501571,0.021834998127128,0.071488488819121,0.003411327758113,0.012040869237227,0.001180395005104
standing,2.338165901,9.512962665,0.26826538066,0.01203306349,-0.01306152341,-0.00277403605,0.202072474168147,0.116268841356375,0.176153665062599,0.0357357838322,0.069148572278248,0.035916116455891,0.040833284816436,0.013518443470354,0.031030113714986,0.001277046246102,0.00478152504812,0.001289967421273
standing,2.330334479,9.5247455,0.14591430671,0.01523742229,0.01941985894,-0.00837095315,0.160465816306026,0.102408346658331,0.126686719378454,0.032141267146883,0.088131291327855,0.032573417277572,0.025749278202759,0.010487469465293,0.016049524866875,0.001033061053807,0.007767124511115,0.001061027513139
standing,2.288082889,9.527221075,0.14074890178,0.01320800344,0.02743072337,-0.0080505231,0.155009424641121,0.072517955256179,0.113305846216399,0.025814887645003,0.089543933390433,0.023463046508407,0.024027921727571,0.005258853834537,0.012838214786814,0.000666408424124,0.00801811600703,0.000550514551456
standing,2.255328982,9.538789635,0.0957836916,-0.00821839265,-0.01343536406,0.00305786309,0.11541579246231,0.072032759304391,0.112652942869638,0.034582767947088,0.070036948182387,0.03181169019534,0.013320805149703,0.005188718413004,0.01269068553719,0.001195967838882,0.004905174110702,0.001011983633084
standing,2.369586793,9.51810422,0.18738037077,-0.00966034679,-0.00508270642,0.00577088474,0.127630008978363,0.079755833310626,0.154977447911197,0.029901311294232,0.047959277080356,0.025241552831127,0.016289419191817,0.006360992947072,0.024018009361068,0.000894088417115,0.00230009225807,0.000637135989327
standing,2.387510993,9.497799695,0.2856420904,-0.00267486873,-0.01537933968,-0.00501708092,0.107675074630782,0.066524022141352,0.283150061100341,0.031687635136972,0.086456938528283,0.014312666799535,0.011593921696745,0.004425445521863,0.080173957101127,0.001004106220574,0.007474802219683,0.000204852430914
standing,2.357542118,9.50572631,0.2862847906,0.00549620705,0.00506438934,-0.00177001344,0.149200035824401,0.085554067035189,0.428050531401313,0.043315492122382,0.11780956820221,0.017907770763123,0.022260650690003,0.007319498386262,0.183227257432947,0.001876231857804,0.013879094359991,0.000320688253705
standing,2.390986322,9.502893655,0.2746923828,0.01275939067,0.02053070073,0.0010284569,0.1581261322239,0.105689268896598,0.334624163821936,0.044615625878316,0.093990017701428,0.016903511658141,0.02500387369209,0.011170221559898,0.11197333101353,0.001990554072514,0.008834123427515,0.000285728706377
standing,2.387558589,9.503821995,0.23851074208,0.00486601025,-0.00032959048,-0.00272061858,0.104325181456029,0.080594608712448,0.096581025974899,0.034722404765196,0.057691802663085,0.011764558821722,0.010883743485833,0.006495490953513,0.009327894578364,0.001205645392678,0.003328344094516,0.00013840484427
standing,2.391319579,9.50517882,0.25386413538,0.00133053227,0.00212707464,-0.0006804928,0.05490361780612,0.02735362934449,0.069794637871646,0.009931698772198,0.023523474186377,0.004835221756688,0.0030144072482,0.000748221038316,0.004871291475634,9.86386405016807E-05,0.000553353837797,2.33793694363512E-05
standing,2.391676631,9.505988175,0.25648254382,0.00470578566,0.00296020341,-0.00251763988,0.045564792327744,0.024579989055049,0.054888981697538,0.006940287839854,0.015644711169885,0.004015258107268,0.00207615029987,0.000604175861946,0.003012800311793,4.81675953000244E-05,0.000244756987589,1.61222976679828E-05
standing,2.394176018,9.50522645,0.2440093996,0.00303951279,0.00103759179,-0.0005843642,0.045770669891948,0.028959816040307,0.057724401992239,0.007404997440308,0.016347130354557,0.005206396196367,0.002094954222358,0.000838670945088,0.003332106585362,5.48339870909722E-05,0.000267228670829,2.71065613535427E-05
standing,2.406387328,9.499204115,0.25843444878,0.00216366316,0.00164641493,-0.00141751748,0.034413464911429,0.028508085668439,0.05382542305522,0.005548696734657,0.012376117769289,0.004831109502541,0.00118428656721,0.000812710948479,0.002897176167073,3.07880354531878E-05,0.000153168291039,2.33396190255419E-05
standing,2.389558104,9.502417595,0.2440570074,0.00460966887,0.00116576636,-0.00358577571,0.037364170536407,0.025364943067284,0.047641888577094,0.004323033790975,0.011356940759925,0.002618590838395,0.001396081239874,0.000643380336807,0.002269749547192,1.86886211579141E-05,0.000128980103424,6.85701797892657E-06
standing,2.380012813,9.5050122,0.2267279057,0.00303953307,-7.32435599999998E-05,-0.00223991644,0.036495382404021,0.026586549364217,0.048350028601026,0.004155211343888,0.012313539554389,0.002274867407149,0.001331912936816,0.000706844607096,0.00233772526572,1.72657813123734E-05,0.000151623256358,5.17502172010774E-06
standing,2.372229,9.50698795,0.2203247073,0.00089262729,-0.00032959515,-0.0013854438,0.039733939317374,0.03300975641019,0.057816414213748,0.00746427698897,0.014519590369957,0.003607732082459,0.001578785933677,0.00108964401826,0.003342737752536,5.57154309680658E-05,0.000210818504511,1.30157307788074E-05
standing,2.380227048,9.50496462,0.2432238772,4.880657E-05,0.00100554776,-0.00010371561,0.04609692591122,0.033800455788655,0.067683373089777,0.007708154847403,0.016863019571147,0.004159073364337,0.002124926578465,0.001142470811521,0.00458103899281,5.94156511515428E-05,0.000284361429057,1.72978912499414E-05
standing,2.402983397,9.498037685,0.2810003656,0.00133054483,0.00158233227,0.00027014426,0.040655046389828,0.029614146213129,0.051749548197606,0.004776092598728,0.016697401188955,0.003288799960871,0.001652832796959,0.000876997655933,0.002678015738656,2.28110605116241E-05,0.000278803206465,1.08162051826265E-05
standing,2.412409669,9.498537555,0.2823571765,0.00218504092,-0.00041504322,-0.0003280013,0.037047585758722,0.029755632794048,0.044899361957955,0.004817415789286,0.015659671305436,0.00339596765551,0.00137252361055,0.000885397682974,0.002015952704231,2.32074948868612E-05,0.000245225305394,1.15325963172673E-05
standing,2.417218014,9.499846785,0.278762817,0.00332790582,0.00039672532,-0.0026565221,0.040884048004402,0.027332065906984,0.049789320448894,0.007651955796764,0.017453146544497,0.004308617813266,0.001671505381226,0.000747041826744,0.002478976430763,5.85524275156368E-05,0.000304612324304,1.85641874607891E-05
standing,2.404578241,9.500132435,0.2706457523,0.00324246976,0.00102691393,-0.00262446917,0.041693231587452,0.025524504108664,0.052542842862925,0.007172985308851,0.015671790892076,0.003938455711491,0.001738325560205,0.000651500309993,0.002760750336118,5.1451718240995E-05,0.000245605029765,1.5511433391377E-05
standing,2.402673949,9.499275495,0.2766680911,0.00088195011,-0.00139771022,-0.0011718017,0.037001007914761,0.026677103001129,0.04756385781179,0.004525577266368,0.011509941222234,0.002780857760516,0.001369074586708,0.000711667824533,0.00226232056994,2.04808495938681E-05,0.000132478746939,7.73316988422274E-06
standing,2.427191774,9.486826175,0.3045422365,-0.00185242635,0.00292815422,0.00175481504,0.044498748950215,0.027074333588652,0.062384325909782,0.005825395420274,0.015712153791303,0.004828324657806,0.001980138658134,0.00073301953927,0.003891804119218,3.39352318025471E-05,0.000246871776762,2.33127190011793E-05
standing,2.472990117,9.469425665,0.3677648922,-0.00311280426,0.00605773229,0.00271609807,0.056162957455151,0.026848430463884,0.084605058294218,0.006638336073368,0.017601412012931,0.005208373815065,0.003154277790109,0.000720838218374,0.007158015888968,4.40675058229824E-05,0.000309809704849,2.71271577974522E-05
standing,2.482702032,9.46825928,0.4235369865,0.00355223483,0.0038146914,-0.0050063897,0.052844497368996,0.031234571679578,0.064306858527834,0.009780162751838,0.018657537908653,0.006935255789987,0.002792540902182,0.000975598468007,0.004135372053719,9.56515834524404E-05,0.000348103720813,4.80977728725466E-05
standing,2.419146118,9.488492475,0.3704071046,0.00843352594,-0.00333099575,-0.0070358086,0.081470779197475,0.038009070531966,0.099784767749542,0.02815209814693,0.057440432215156,0.009492603954935,0.006637487863044,0.001444689442704,0.00995699987483,0.000792540630074,0.003299403253064,9.01095298452527E-05
standing,2.404030762,9.49734744,0.30794616703,0.00253750509,-0.00610809308,-0.00109706997,0.083372737551756,0.044318690517071,0.19502678124075,0.042429129116897,0.084043289079427,0.019203438673268,0.006951013366874,0.001964146329148,0.038035445401128,0.001800230997618,0.007063274439288,0.000368772056878
standing,2.423002323,9.49215821,0.32560852053,0.00251613347,-0.00097046372,-0.00194088669,0.065670241973872,0.041668708325385,0.190750523336224,0.032586531139058,0.064429302574467,0.01768991785231,0.004312580680907,0.001736281253506,0.036385762153044,0.001061882011677,0.004151135030232,0.000312933193621
standing,2.392414548,9.4972284,0.3078509522,0.00616911808,-0.00102387058,-0.00452573449,0.057368495681724,0.032188331286667,0.069503047921074,0.006869875327923,0.015442424157691,0.004775764148984,0.003291144296784,0.00103608867102,0.004830673670319,4.71951870212005E-05,0.000238468463866,2.28079232067201E-05
standing,2.387130122,9.497490225,0.297686767,0.00035857074,-0.00015870427,1.37574599999999E-05,0.048290296407192,0.033030314744918,0.063118836982578,0.008753275704085,0.011875972654327,0.005537524139895,0.002331952727094,0.001091001692148,0.003983987582033,7.66198355517216E-05,0.000141038726486,3.06641735999186E-05
standing,2.422954715,9.48832578,0.3324877938,-0.00060273292,-0.00095979138,0.00016329752,0.04168883288615,0.03215279562325,0.058210920649395,0.007417813006511,0.013363413441233,0.004853092139066,0.001737958787409,0.001033802266391,0.00338851128285,5.5023949799565E-05,0.000178580818801,2.35525033102639E-05
standing,2.435832529,9.489754025,0.3271081552,0.01026001167,-0.00276489747,-0.00400235577,0.051599281979824,0.039259753066021,0.073256087963315,0.01037408237007,0.022129971685867,0.006651005177565,0.002662485900833,0.001541328210805,0.005366454423689,0.000107621585021,0.000489735646817,4.42358698719948E-05
standing,2.386201788,9.5049884,0.27226440402,0.0028152466,-0.00308533039,-0.00352171678,0.081510076031039,0.051048050881181,0.133827362202771,0.02357998608932,0.035728340136897,0.01067113911453,0.006643892494586,0.002605903498768,0.017909762874152,0.000556015743973,0.001276514288938,0.000113873210002
standing,2.364873659,9.5084161,0.23898681642,-0.00185243219,-0.00046844483,-0.00135343336,0.067979589766328,0.045409087837706,0.120308170825,0.021663556994777,0.033178117313494,0.009319897885573,0.004621224624798,0.002061985258253,0.014474055967257,0.000469309701666,0.001100787468468,8.68604965975082E-05
standing,2.411885987,9.50170351,0.2669085695,-0.0009765996,-0.0020385742,0.00096439626,0.063152674200268,0.036627895289703,0.071713832807394,0.0144408184202,0.023314489017031,0.004953266760544,0.003988260258645,0.001341602713353,0.005142873815927,0.000208537236645,0.000543565398125,2.45348516011054E-05
standing,2.44271179,9.490349145,0.3510070802,-0.00829319515,-0.00708007981,0.00067600014,0.052766247555181,0.03940513734359,0.091889396885698,0.01276634546941,0.02149433177692,0.004627484897569,0.002784276881055,0.001552764849067,0.008443661260017,0.000162979576644,0.000462006298536,2.14136164772266E-05
standing,2.460374141,9.475757435,0.4131109617,-0.00012209905,-0.00365143207,-0.00171657123,0.040242761679632,0.037053716616069,0.052918094483145,0.012919474218426,0.015151967362596,0.004180797602148,0.001619479867604,0.001372977915064,0.002800324723727,0.000166912814081,0.000229582114957,1.74790685901263E-05
standing,2.44625854,9.48208922,0.3877838133,0.00520781049,5.49232100000002E-05,-0.00269923443,0.038323204643127,0.032618722388828,0.049896111219136,0.005524706239649,0.009275379577513,0.003877283125966,0.001468668014119,0.001063981050279,0.002489621914792,3.05223790344156E-05,8.6032666306939E-05,1.5033324438901E-05
standing,2.28467895249,9.417200308,-0.0456579578,0.11631314734,-0.16990357764,-0.06407315191,0.748228386898552,0.637001399502038,1.10863118559277,0.179423702390928,0.434135364009415,0.161607543304776,0.559845718960809,0.405770782967555,1.22906310566883,0.032192864979669,0.188473514283587,0.026116998053005
sit_down_chair_1,0.09538024912,7.465486459,-3.9964550764,0.59236143186,-0.10056152836,-0.3624084362,2.69252426104547,2.86882703072596,4.44462994494231,0.592577609431322,0.641526944660851,0.450113722036317,7.24968689631846,8.23016853222394,19.7547353474779,0.35114822319934,0.411556820725886,0.202602362765387
sit_down_chair_1,-2.79712769037,3.869674076,-8.2409899843,0.5313934312,0.02034912287,-0.28786468577,1.82939565543285,2.82368769128691,2.57366770067985,0.636517658830851,0.467576815908574,0.480108798063177,3.3466884641166,7.97321217792522,6.6237654335227,0.405154730003508,0.2186280787752,0.230504457977669
sit_down_chair_1,-3.762963258,2.120815432,-8.956886613,0.05547332833,-0.05383148567,0.03022003183,0.445570922164121,0.848569850736379,0.281786086882021,0.169602640942832,0.109907794236611,0.095967963573089,0.198533446678185,0.720070791578761,0.079403398760282,0.028765055814783,0.012079723233957,0.009209850032366
sitting_chair_1,-3.9024292,2.080087278,-8.96407533,0.00250547939,-0.00536042392,0.01782989777,0.09864683900241,0.084488705192459,0.064238699976909,0.035237052555983,0.009565193844729,0.025446783358969,0.009731198845167,0.007138341305098,0.004126610574723,0.001241649872833,9.14929332872358E-05,0.000647538783318
sitting_chair_1,-3.916949467,2.071137086,-8.959743055,0.00158688904,-0.00123751549,-0.00148157804,0.023587232246607,0.028243509589299,0.038168182260625,0.004132628951689,0.00315925765571,0.005535036774645,0.000556357525055,0.000797695833921,0.00145681013708,1.70786220523409E-05,9.9809089351652E-06,3.06366320966747E-05
sitting_chair_1,-3.910689085,2.071160889,-8.96459902,0.00279384084,0.00050351071,-0.00228265778,0.030339435039011,0.032729723590987,0.069975026094774,0.006432866845912,0.008504366980488,0.004451814462487,0.000920481318486,0.001071234806342,0.004896504276964,4.13817758572381E-05,7.23242577388184E-05,1.98186520084056E-05
sitting_chair_1,-3.905880737,2.06649536,-8.969931035,0.00181117731,-0.00069276292,-0.00317989257,0.040646251037385,0.049234913817341,0.073584090852282,0.009310257806076,0.010300954088287,0.005417680769821,0.001652117723394,0.002424076738601,0.005414618426557,8.66809004156033E-05,0.000106109655129,2.93512649236919E-05
sitting_chair_1,-3.924304817,2.060496823,-8.957648345,0.0013305264,-0.00261536238,-0.00341486833,0.044370987555609,0.049283431149762,0.048992182747837,0.007248648946337,0.006711332564483,0.005176509360022,0.00196878453666,0.002428856585893,0.002400233970397,5.25429115472366E-05,4.5041984791095E-05,2.67962491543975E-05
sitting_chair_1,-3.936563726,2.054950558,-8.94846012,0.00315701455,0.00033263107,-0.00226131898,0.03561600715188,0.035395514856359,0.039502608198196,0.004211789568991,0.007017282812702,0.004922248830556,0.001268499965443,0.001252842471947,0.00156045605446,1.77391713734597E-05,4.92422580734371E-05,2.42285335499081E-05
sitting_chair_1,-3.926875619,2.053903201,-8.958124415,0.00264433378,0.00105893449,-0.00180202101,0.030443754707663,0.028787985117226,0.04183938631164,0.00413233363245,0.006370602899619,0.003662056116613,0.0009268222007,0.00082874808711,0.001750534246935,1.70761812498757E-05,4.05845813046363E-05,1.3410655001226E-05
sitting_chair_1,-3.923662118,2.054069829,-8.95783871,0.00206753262,-0.00023349581,-0.00215448563,0.023851408722763,0.026283468269888,0.041984943128832,0.002473165890093,0.003081112856773,0.002440070547646,0.00056888969806,0.000690820704294,0.001762735449531,6.11654951992093E-06,9.49325643616888E-06,5.95394427748892E-06
sitting_chair_1,-3.921329344,2.056069335,-8.95648189,0.00240932368,2.285425E-05,-0.00232538755,0.025037190212366,0.02687870225632,0.036937603003776,0.002109451605913,0.002551100079947,0.002008844293204,0.00062686089373,0.000722464634984,0.001364386515665,4.44978607768998E-06,6.50811161790441E-06,4.03545539433795E-06
sitting_chair_1,-3.919044191,2.058283075,-8.96226624,0.00219569912,-0.0002228183,-0.00206903149,0.022769105010896,0.0255978872474,0.034368276294748,0.002435994418079,0.002991482626215,0.001929249672311,0.000518432142997,0.000655251831531,0.001181178415472,5.93406880491132E-06,8.94896830294722E-06,3.72200429811296E-06
sitting_chair_1,-3.919829718,2.056307371,-8.960718995,0.00227048423,-0.00048985473,-0.00206903714,0.021989504190599,0.026073237510893,0.039936597871413,0.002442893246957,0.002718515136745,0.001700665343469,0.000483538294548,0.000679813714299,0.001594931849543,5.96772741602846E-06,7.39032454870982E-06,2.89226261047529E-06
sitting_chair_1,-3.920353398,2.055807495,-8.96209961,0.0021530042,-0.00014805343,-0.00240016062,0.022704221262091,0.02668959900963,0.039622126795656,0.002420768971926,0.002384479946309,0.001811024104603,0.000515481663118,0.000712334695295,0.001569912931811,5.86012241543857E-06,5.68574461435126E-06,3.27980830745331E-06
sitting_chair_1,-3.91571167,2.057330936,-8.96252807,0.00183256369,1.21599399999999E-05,-0.00257105608,0.024294583390336,0.026112768310245,0.031983107453844,0.002369777915732,0.002458367232786,0.001922634834209,0.00059022678211,0.000681876668825,0.001022919162404,5.61584736989282E-06,6.04356945123618E-06,3.69652470571422E-06
sitting_chair_1,-3.912164916,2.057664189,-8.95910032,0.00221707696,-0.00035100181,-0.00229334001,0.02374913239162,0.027063066575947,0.030341323521361,0.002417166915428,0.002297363894047,0.001936490994665,0.000564021289355,0.000732409572494,0.000920595913028,5.8426958970403E-06,5.27788086167305E-06,3.74999737241928E-06
sitting_chair_1,-3.917068484,2.052403561,-8.9617425,0.00283658393,-0.00055393918,-0.00213312668,0.033167682339289,0.029936964938556,0.042439155157172,0.005713306609648,0.002830818634944,0.002253976201293,0.00110009515176,0.000896221869732,0.001801081890455,3.26418724158478E-05,8.0135341439446E-06,5.08040871599368E-06
sitting_chair_1,-3.919758301,2.048452141,-8.96509885,0.00230249765,-0.00105594416,-0.00293423662,0.036779660217565,0.028979587153043,0.044444690140435,0.006101521825765,0.003557841517935,0.002505188867332,0.00135274340572,0.000839816471561,0.001975330481679,3.72285685902914E-05,1.26582362667443E-05,6.27597126100483E-06
sitting_chair_1,-3.924019166,2.051737061,-8.95838624,0.00213160453,-0.00105594168,-0.00305171472,0.030041407294815,0.027630900269605,0.033957021643563,0.00348219581123,0.003242652832074,0.002424344708729,0.000902486152253,0.000763466649709,0.001153079318901,1.21256876677486E-05,1.05147973893553E-05,5.87744726674402E-06
sitting_chair_1,-3.928280036,2.052593999,-8.95414918,0.00272978453,-0.00024416976,-0.00253901443,0.02607191018491,0.024682819125864,0.033487695828115,0.002755602647606,0.002636076756725,0.002437047894599,0.00067974450069,0.00060924156,0.001121425771876,7.59334595149169E-06,6.94890066734649E-06,5.939202440569E-06
sitting_chair_1,-3.929089364,2.050594485,-8.957386495,0.00264432751,-0.00044710935,-0.00242153356,0.02475228485594,0.023205404721325,0.035299609648133,0.002575952783023,0.002476466396341,0.002068824870941,0.00061267560559,0.00053849080828,0.001246062441311,6.63553274036387E-06,6.13288581220415E-06,4.28003634662607E-06
sitting_chair_1,-3.929327401,2.046881106,-8.9562201,0.00225979432,-0.00070347543,-0.00211176393,0.02212224351876,0.02401286624793,0.036371841361349,0.00237368834459,0.002114816931087,0.001693871734979,0.000489393658303,0.000576617745441,0.001322910844015,5.63439635724285E-06,4.47245065201346E-06,2.86920145456019E-06
sitting_chair_1,-3.928589482,2.047142944,-8.95893373,0.00193934959,-0.00046849457,-0.00194085477,0.02224568549111,0.022360890221113,0.037397572240683,0.001913513451009,0.001627266739132,0.001574266707839,0.000494870522969,0.000500009411481,0.001398578409497,3.66153372719107E-06,2.64799704028653E-06,2.47831566740996E-06
sitting_chair_1,-3.926875615,2.051046752,-8.95883849,0.00237727742,-0.00071415471,-0.00265651878,0.025270378065207,0.02263534037544,0.038273511085515,0.002120161743996,0.001945462513272,0.001645371882739,0.000638592007558,0.000512358633912,0.001464861650813,4.49508582070368E-06,3.78482439054512E-06,2.7072486325072E-06
sitting_chair_1,-3.926328133,2.05216552,-8.956696155,0.00238798192,-0.00030827765,-0.00229334925,0.023605471574929,0.024946399843033,0.037312020935571,0.002746895352131,0.002356398884107,0.001924551008903,0.000557218288275,0.000622322865128,0.001392186906296,7.54543407555682E-06,5.55261570102284E-06,3.70389658587096E-06
sitting_chair_1,-3.927708746,2.049666132,-8.958124375,0.00232390032,-0.00022283333,-0.00204766653,0.022900440874683,0.0261225340093,0.040215607979345,0.003002333982353,0.002449249319809,0.002435824621073,0.000524430192255,0.000682386783067,0.001617295125148,9.01400934159067E-06,5.99882223058301E-06,5.93324158462661E-06
sitting_chair_1,-3.926851806,2.047500003,-8.95893367,0.00238796967,-0.0008209669,-0.00245356361,0.026553928301781,0.026786114427885,0.038852204578339,0.002683244413906,0.002392308097514,0.002507158647713,0.000705111108256,0.000717495926144,0.001509493800597,7.19980058475703E-06,5.723138033433E-06,6.28584448480293E-06
sitting_chair_1,-3.925399777,2.046262209,-8.963718245,0.00229183835,-0.00058598022,-0.00245356918,0.025489612793192,0.025086504922578,0.036331271214452,0.002316511273936,0.002150083838421,0.002285961411813,0.000649720360347,0.000629332729231,0.001319961268058,5.36622448227352E-06,4.62286051223997E-06,5.22561957629862E-06
sitting_chair_1,-3.924733281,2.046571651,-8.958767095,0.00245206591,-0.0006393753,-0.00292355164,0.023428261963286,0.022238626289848,0.03977697159953,0.002420973042951,0.002075220565007,0.002508803764039,0.00054888345862,0.000494556499259,0.00158220746963,5.86111047469398E-06,4.3065403934272E-06,6.29409632645678E-06
sitting_chair_1,-3.925423598,2.052332152,-8.961099865,0.00222775438,-0.00066073406,-0.00223993878,0.022042209418355,0.025290842575851,0.035615996526279,0.002694489385797,0.002211986251015,0.002565312501256,0.000485858996043,0.000639626718196,0.00126849920856,7.26027305017521E-06,4.89288317468105E-06,6.58082822909787E-06
sitting_chair_1,-3.915068978,2.083634035,-8.959005145,-9.00546300000002E-05,-0.00737919059,-0.0106032843,0.066717526189703,0.114992348553918,0.137185578966082,0.023225286937501,0.033212227872667,0.037269184125562,0.004451228300874,0.013223240225946,0.018819883076259,0.000539413953329,0.001103052080266,0.001388992085385
stand_up_chair_1,-3.695717769,2.2700170829,-9.110253921,-0.23139038986,0.14336393568,0.08599702099,0.878543460679475,1.10086196852411,0.835430570422383,0.486799388000153,0.27240805838596,0.238402857827708,0.771838612302668,1.21189707374277,0.697944237996269,0.236973644157324,0.074206150273609,0.056835922620418
stand_up_chair_1,-0.7376068109,5.6019177459,-5.46383485554,-0.62785339468,0.18318328853,0.24287109628,3.06509627628306,3.50620366709675,4.7808316007845,0.66517703034233,0.596569225104842,0.307112034317085,9.39481518288425,12.2934641551627,22.8563507950597,0.44246048169504,0.355894840342191,0.094317801622378
stand_up_chair_1,2.2108636431,9.133174456,-0.73958375503,-0.41499939419,0.02091522061,0.14468995072,1.05400213891258,1.04214735082594,2.93123672304792,0.619401533772523,0.631162772507027,0.265700983468643,1.11092050883229,1.08607110083352,8.59214872654472,0.383658260039754,0.398366445398757,0.070597012616204
standing,2.431643069,9.485064715,0.27364501751,-0.01590882685,-0.01705627544,-0.00290220716,0.211800716835003,0.103323762831147,0.463423169606206,0.085843588579245,0.323701801376498,0.025843682015717,0.044859543651821,0.010675799965587,0.214761034127862,0.007369121700163,0.10478285621439,0.000667895900129
standing,2.410029302,9.49239624,0.3929016109,-0.00301666992,-0.00542450008,-0.00441893302,0.076551474045482,0.046574895344172,0.084461170356732,0.016561853927235,0.057216718476421,0.009803418488025,0.005860128178536,0.002169220876321,0.007133689298029,0.000274295005507,0.00327375287321,9.61070140513435E-05
standing,2.372109985,9.50191771,0.4091595456,-0.00246124821,-0.00094909768,-0.00596770575,0.072309551791723,0.045552254656868,0.077443918271939,0.016271096700499,0.037899530706591,0.011529627925533,0.00522867128032,0.002075007904324,0.005997560477311,0.000264748587837,0.00143637442778,0.000132932320101
standing,2.340855709,9.504607545,0.4045178215,0.00413967681,-0.00169677947,-0.00374601103,0.076422024711042,0.037064142319284,0.068304417103586,0.011793136096886,0.02143103885147,0.009841545326014,0.005840325860935,0.001373750645864,0.004665493395861,0.000139078059,0.000459289426253,9.68560144039873E-05
standing,2.351019898,9.500989345,0.4216564931,0.00250546305,0.00729674751,0.00204318422,0.069723016167763,0.040703938667393,0.062219335352557,0.008732519466448,0.015862862026605,0.008438594551577,0.00486129898353,0.001656810623039,0.003871245691714,7.62568962318988E-05,0.000251630391675,7.12098780059075E-05
standing,2.405768434,9.489801645,0.4461981191,0.00298614202,0.00942229362,0.00090028582,0.048077122476417,0.038509307780179,0.052315370791293,0.007103424457409,0.014497669770687,0.00831179906687,0.002311409705612,0.001482966785709,0.00273689802103,5.04586390221155E-05,0.00021018242878,6.90860037280135E-05
standing,2.385440063,9.494800445,0.429440308,0.00533599553,0.00489348341,-0.00530546869,0.049339552409775,0.036713840093603,0.052218218751944,0.006875568054435,0.012896348023771,0.006906345620416,0.002434391431997,0.001347906054419,0.002726742369626,4.72734360711716E-05,0.00016631579235,4.76976098286334E-05
standing,2.348401489,9.501274995,0.4103973394,0.01563261637,0.00109099639,-0.01016537166,0.057943130110227,0.081700245173386,0.069688017270439,0.050014877116952,0.030803683583206,0.025061411698655,0.003357406326971,0.006674930061391,0.004856419751085,0.002501487933024,0.000948866922294,0.000628074356329
standing,2.318623048,9.52034176,0.3566485599,0.01115721828,0.00730743236,-0.00738827768,0.12879921440562,0.134330634529125,0.130855290925558,0.07708787065909,0.054363029542993,0.033050937236189,0.016589237631505,0.018044719372997,0.017123107163212,0.005942539802753,0.002955338981092,0.00109236445219
standing,2.283536381,9.53091066,0.3087792975,-0.00104065935,0.00953979181,0.00044099299,0.129539286887427,0.114567587797583,0.107217314777223,0.059304582307932,0.046686254993806,0.022613168674297,0.016780426847303,0.013125732173757,0.011495552588038,0.003517033482718,0.002179606405347,0.000511355397492
standing,2.292534182,9.52260316,0.3517211912,0.00040128025,0.00042876215,-0.00014644645,0.059321972082528,0.039188864362206,0.054982075335432,0.012569809462806,0.010759468841613,0.007096257495642,0.00351909637176,0.001535767089999,0.003023028608191,0.000158000109931,0.000115766169754,5.03568704444587E-05
standing,2.312719725,9.52117491,0.3802142339,0.00286862456,0.00131529876,-0.00219722825,0.039609863490658,0.030515083863706,0.046958958677646,0.007102959651522,0.011827298355563,0.004261677174347,0.001568941285749,0.000931170343209,0.002205143800089,5.0452035811155E-05,0.000139884986392,1.816189233835E-05
standing,2.311767571,9.5177948,0.374691773,0.00291136323,0.00081328766,-0.00136410211,0.050967296387329,0.033265017447961,0.050150684243179,0.007311644082499,0.01361698948159,0.005415324702953,0.002597665301034,0.001106561385813,0.002515091130059,5.34601391891423E-05,0.000185422402542,2.93257416384157E-05
standing,2.302888787,9.520222755,0.3757629402,-0.00084840538,-0.0033309983,-0.00023189383,0.049260000416407,0.033429052459211,0.086291292002382,0.021780749160407,0.032286473385089,0.005751215653222,0.002426547641024,0.001117501548321,0.00744618707544,0.000474401033989,0.001042416363646,3.30764814898631E-05
standing,2.353614506,9.500061025,0.37988098167,0.00176847854,-0.01107483198,-0.00435484211,0.11768532110971,0.073524852677818,0.134905931997286,0.053449172106036,0.123748265333276,0.023803449231804,0.013849834804696,0.005405903961295,0.018199610488056,0.002856813998821,0.015313633172995,0.000566604195331
standing,2.217147833,9.528958755,0.57940368517,-0.00833588076,0.01979369933,-0.00838165287,0.3292622509654,0.178633344641109,0.329896357536536,0.061220330534999,0.158048540108914,0.051325445013981,0.108413629910802,0.031909871817669,0.108831606715874,0.003747928870814,0.024979341030559,0.002634301305883
standing,2.158638304,9.551929315,0.41627685468,0.0047164875,0.00351562545,-0.00619201401,0.422697383235749,0.349234565198763,0.652423028775883,0.277065651576462,0.257219179684554,0.104514569074719,0.17867307779435,0.121964781529569,0.425655808477097,0.076765375283489,0.066161706397595,0.010923295148874
standing,2.280727538,9.52395998,0.25605407738,0.01447906502,-0.03244781622,-0.00457915987,0.327457821804317,0.313228067014364,0.529031021733143,0.275595788778439,0.234174893741218,0.094492188905638,0.107228625060828,0.098111821965555,0.279873821956013,0.07595303879241,0.054837880858711,0.008928773764179
standing,2.236666861,9.52962525,0.41073059107,0.00094604492,-0.00622559297,-0.0004455493,0.131750149683948,0.069548284154143,0.129514065805761,0.033020785174861,0.043286129342754,0.019285275009723,0.017358101941743,0.004836963828785,0.016773893241539,0.001090372253564,0.001873688993478,0.000371921832201
standing,2.288106679,9.515176365,0.39125915487,-0.00404205267,-0.0163192803,0.0072235226,0.141412206992015,0.079455622880655,0.134110720930909,0.025865981688755,0.049159648748755,0.018247902519581,0.019997412286353,0.006313196007353,0.017985685468608,0.000669049008723,0.002416671065101,0.000332985946364
standing,2.365849609,9.49508606,0.4517443837,-0.0083038369,-0.01873321795,0.00169068949,0.079444059672015,0.059567643663635,0.092589733529564,0.019285930631078,0.035884423574625,0.013199130687259,0.006311358617171,0.003548304171638,0.008572858755076,0.000371947120307,0.001287691855283,0.000174217050899
standing,2.376751708,9.4884448,0.5057073969,-0.00078431254,0.00465849885,-0.00234674907,0.044702468350829,0.030878485460566,0.056955041983863,0.008465496580697,0.016777271191909,0.005734177907344,0.001998310676657,0.000953480864338,0.003243876807384,7.16646323577991E-05,0.000281476828647,3.28807962730739E-05
standing,2.388486935,9.490634755,0.527297362,0.01129606693,0.00583342214,-0.00704645104,0.034651269422295,0.038932096916563,0.041669846241648,0.02286446685479,0.009931204825376,0.0172001122803,0.001200710472576,0.001515708170321,0.001736376085803,0.000522783844554,9.86288292835668E-05,0.000295843862455
standing,2.303650507,9.513176905,0.31696777174,0.03068236478,-0.03714752847,-0.0144058066,0.120989121513998,0.068100981209343,0.268011367580283,0.037409007126635,0.050532227482471,0.025753384377403,0.014638367524729,0.004637743641675,0.071830093152254,0.001399433814201,0.00255350601434,0.00066323680689
standing,2.164755855,9.553476565,0.04770019502,0.00777130126,-0.01760101368,-0.0079223588,0.163093014755188,0.090349445572599,0.237687071962461,0.054768024627065,0.086302067352682,0.035891370046866,0.026599331461936,0.008163022315276,0.056495144178088,0.002999536521551,0.007448046829347,0.001288190443841
standing,2.174134519,9.568520515,0.00918578928,-0.00066680912,0.01113128646,-0.00015715829,0.184260490035082,0.168657835800524,0.209432591023979,0.111758770572935,0.085040330628398,0.059516955946609,0.033951928187969,0.028445465576917,0.043862010183018,0.012490022799974,0.007231857833387,0.003542268045151
standing,2.226621698,9.55983216,-0.00040710632,0.01925352685,-0.0033203147,-0.00508117065,0.126272573434888,0.157897758766389,0.136625325323785,0.104582977801238,0.061227801076107,0.052976249725147,0.015944762801869,0.024931702223449,0.01866647951983,0.010937599245774,0.003748843624615,0.002806483034941
standing,2.21924255,9.55585693,-0.0360888674,0.00988614698,0.00529936901,-0.00470731238,0.064842991437427,0.040832669373082,0.054259567438774,0.011567963181614,0.017193574740608,0.01481843574103,0.004204613538554,0.001667306888131,0.002944100658643,0.000133817772171,0.000295619012361,0.000219586037811
standing,2.22864502,9.551715105,-0.0569647217,-0.00095521251,0.00270384577,0.00020602001,0.065562147560251,0.04375001190143,0.078515748806076,0.014371208069535,0.015512686629577,0.015593709408714,0.004298395192712,0.001914063541375,0.006164722810579,0.000206531621378,0.000240643446467,0.000243163773123
standing,2.232882082,9.54995361,-0.02080688682,-0.00442657628,0.00424193638,-0.00057371637,0.07264034782062,0.045153351270615,0.098133186014107,0.012377234134709,0.016110672677886,0.011370630783449,0.005276620131501,0.002038825130968,0.009630122197279,0.000153195924825,0.000259553774134,0.000129291244414
standing,2.25699524,9.539289525,0.06733825504,-0.0014465518,0.00365447465,0.00074006631,0.059342286298408,0.037594154920664,0.07436892834437,0.008005028191349,0.012828505558818,0.005815484748201,0.003521506943122,0.001413320484199,0.00553073750309,6.40804763442883E-05,0.000164570554873,3.38198628565552E-05
standing,2.291201168,9.52817321,0.11382690426,-0.00027163377,0.00362242254,-0.00053098419,0.040383332099723,0.03154892032347,0.055549508490735,0.007557629733733,0.013248947020632,0.005188266921707,0.001630813511477,0.000995334373577,0.003085747893562,5.71177671922081E-05,0.000175534597156,2.69181136508749E-05
standing,2.302246088,9.52550717,0.12522888158,0.00180049524,0.00119780144,-0.0012359133,0.039105249309336,0.030250506474783,0.049055692567703,0.005980848709953,0.011218292792832,0.003549052503144,0.001529220523545,0.000915093141981,0.002406460973297,3.57705512913463E-05,0.000125850093186,1.25957736700725E-05
standing,2.308911132,9.52562615,0.13341735851,0.00251611842,0.00210570918,-0.003767348,0.048442098443249,0.031383745647487,0.047456087986312,0.007788393965161,0.009538423655628,0.007155107442357,0.002346636901585,0.000984939490866,0.002252080286965,6.06590805565492E-05,9.09815258342401E-05,5.11955625116737E-05
standing,2.292938849,9.529244355,0.14648559558,0.00041195033,0.00136871128,-0.00173794863,0.056114275679571,0.037030605116231,0.053188265446749,0.008368458559666,0.011824934754566,0.008543653049029,0.003148811935043,0.001371265715274,0.002828991581234,7.0031098664854E-05,0.00013982908195,7.29940074221744E-05
standing,2.342307739,9.52931578,0.19913940373,0.00993953425,-0.00825501174,-0.00173793456,0.112783953939317,0.039467319424713,0.086072135560932,0.038529577595155,0.032911018099389,0.0139008934976,0.012720220266186,0.001557669302572,0.007408412520019,0.001484528349661,0.001083135112338,0.000193234840032
standing,1.80298705586,9.307370018,-1.1906878649,0.29398343381,0.03287810695,-0.14216305908,0.948995025218716,1.09998701404045,2.00992452570189,0.344828369777174,0.370855880692376,0.213454826588532,0.90059155788987,1.20997143105762,4.03979659901797,0.118906604603184,0.137534084244118,0.04556296299394
sit_down_chair_1,0.09102416658,6.7110516887,-5.5646435659,0.6363357551,-0.04892883391,-0.25124969428,1.63262897041628,3.03217439557138,3.65721201993182,0.469783478945912,0.438590755267734,0.197527612704431,2.66547735504253,9.19408156515868,13.3751997587338,0.220696517090524,0.192361850606321,0.039017157780712
sit_down_chair_1,-2.12495849628,3.048826906,-8.894235232,0.43003997905,-0.14583892853,-0.08952636603,1.50966279420518,2.04176203667894,1.70114791345509,0.505344971099241,0.219682823047501,0.180970035725109,2.27908175220738,4.16879221442333,2.89390422345261,0.255373539815292,0.04826054274212,0.032750153830347
sit_down_chair_1,-3.268345948,1.5987762453,-9.297136835,0.08034972749,-0.0548782422,0.02559509275,0.370675079616967,0.459440091210431,0.217611003197045,0.104695001769689,0.097971258100765,0.058968110434484,0.137400014649045,0.211085197411449,0.047354548712425,0.010961043395555,0.009598367413847,0.003477238048214
sitting_chair_1,-3.315215464,1.414916381,-9.31468018,0.0047057938,0.00087735601,0.00122071817,0.128267346550086,0.085963914601994,0.059301531719811,0.019008395063827,0.011727547642631,0.016863800835771,0.016452512191,0.007389794613699,0.003516671664316,0.000361319082903,0.00013753537371,0.000284387778629
sitting_chair_1,-3.331187754,1.395778197,-9.319774205,0.00222772805,-0.00038303001,-0.00254971642,0.026306534389185,0.032115244166933,0.043641626331509,0.004229128331697,0.003060696811406,0.003707095505366,0.000692033751569,0.001031388907902,0.001904591548859,1.78855264459605E-05,9.36786497134914E-06,1.37425570859032E-05
sitting_chair_1,-3.330973519,1.39939636,-9.31439454,0.00280450649,-0.00031893847,-0.00218654988,0.028126452391919,0.029783757662491,0.04134557742705,0.004427283025291,0.00274719866433,0.004400291091019,0.000791097324155,0.000887072220498,0.001709456772776,1.9600834986026E-05,7.5471005012948E-06,1.93625616857024E-05
sitting_chair_1,-3.333520517,1.40277649,-9.30537289,0.00307157421,-0.00065004687,-0.00154569017,0.038926288155716,0.032817816385599,0.050277681044676,0.005259698210469,0.012084418734537,0.007213220519661,0.001515255909582,0.001077009072319,0.00252784521123,2.76644252652097E-05,0.000146033176152,5.20305502652613E-05
sitting_chair_1,-3.330164189,1.400943608,-9.30561097,0.00282590865,-0.00122683031,-0.00123594288,0.038526433285022,0.035298983455815,0.050249540216341,0.00573155821841,0.012479712227423,0.007219613877414,0.001484286061665,0.001246018233014,0.002525016291954,3.28507596110179E-05,0.000155743217279,5.21228245389528E-05
sitting_chair_1,-3.324832156,1.403871459,-9.310466935,0.00247341889,-0.000788912,-0.00206905095,0.025580389940025,0.026210256510135,0.036084140885054,0.003846247752987,0.004042654681345,0.003406508405606,0.000654356349484,0.000686977546327,0.001302065223412,1.47936217773559E-05,1.63430568725972E-05,1.16042995174662E-05
sitting_chair_1,-3.326926883,1.407799069,-9.314418335,0.00228116491,-0.00053256007,-0.00243220243,0.028418166920572,0.023571887740091,0.035797208708268,0.002708882020085,0.002594454392063,0.002392667164541,0.000807592211125,0.000555633891631,0.001281440151303,7.33804179873784E-06,6.7311935924948E-06,5.72485616027382E-06
sitting_chair_1,-3.323308719,1.403847657,-9.31708435,0.00249480301,-0.00109865998,-0.00214381133,0.027414887798143,0.026219017243,0.04177066899144,0.003097844961437,0.002440859361804,0.002833637411721,0.000751576072985,0.000687436865189,0.001744788787992,9.59664340510142E-06,5.95779442410709E-06,8.0295009811052E-06
sitting_chair_1,-3.324522712,1.403633425,-9.315751355,0.0027297874,-0.00133364611,-0.00186610859,0.027453348012742,0.02528033572085,0.041545074812585,0.003207792525038,0.002977577021347,0.002917466664246,0.000753686317109,0.000639095374159,0.001725993241183,1.02899328836867E-05,8.86596491805487E-06,8.51161173698554E-06
sitting_chair_1,-3.33575806,1.416392213,-9.310562175,0.00261227967,-0.00052187307,-0.00319058599,0.051362085460414,0.041121616493193,0.050462425830602,0.013002630220516,0.014121040258241,0.004861556758339,0.002638063822843,0.001690987343013,0.002546456420709,0.000169068392651,0.000199403777975,2.36347341145512E-05
sitting_chair_1,-3.361466065,1.418296507,-9.302945,0.00318907016,-0.00107728449,-0.00354306852,0.074678596416302,0.050215897015817,0.075282330765257,0.024099215783367,0.042912432499628,0.016140347686834,0.005576892762709,0.002521636313103,0.00566742932545,0.000580772201373,0.001841476863035,0.000260510823452
sitting_chair_1,-3.386674197,1.410084225,-9.29337589,0.00341336761,-0.00099182333,-0.00158842322,0.072143034670318,0.073364573784048,0.081110358100771,0.022973272207857,0.045545851879661,0.019804452637047,0.005204617451443,0.005382360686515,0.006578890191235,0.000527771235936,0.002074424623444,0.000392216344253
sitting_chair_1,-3.450277705,1.463785396,-9.260241105,-0.00904087148,-0.02462921366,0.01113283119,0.140404594662444,0.147659657060823,0.125042111073949,0.034479570907788,0.055819707873437,0.031428427584391,0.019713450202325,0.02180337432332,0.01563552954183,0.001188840809985,0.003115839787076,0.000987746060427
sitting_chair_1,-3.719854725,1.63619568,-9.12396486,-0.01196748865,-0.03412476108,0.0160675247,0.25616440148987,0.193331734170343,0.176542425592136,0.039463004089594,0.062935772461951,0.04486224578712,0.065620200590663,0.037377159437312,0.031167228033955,0.001557328691775,0.003960911455383,0.002012621097064
sitting_chair_1,-3.791265857,1.689182742,-9.08740237,0.00993957372,0.01294707737,-0.00369261675,0.191587012053443,0.138485702473179,0.140416177781859,0.030108298723306,0.061910561433281,0.04241193259946,0.036705583187566,0.01917828978949,0.019716702982867,0.000906509652012,0.003832917616984,0.001798772026821
sitting_chair_1,-3.594861445,1.576948242,-9.186663835,0.01407317476,0.02401275259,-0.00928954621,0.12939345060989,0.098183030105213,0.117005519563798,0.019852485217254,0.049519648244721,0.023845694239347,0.016742665060734,0.009639907400641,0.013690291608394,0.000394121169301,0.002452195562281,0.000568617133756
sitting_chair_1,-3.518856199,1.51182129,-9.228605965,0.00452421535,0.00247954376,-0.00211180633,0.064154852058259,0.048527425183274,0.081505698230688,0.013095230535926,0.029630586369634,0.013714292481278,0.004115845042617,0.002354910994918,0.006643178844072,0.000171485062789,0.000877971648608,0.000188081818262
sitting_chair_1,-3.499860839,1.495087283,-9.23753236,0.00305020506,0.00025784497,-0.00297695386,0.037671711777723,0.035456589962478,0.039403484416188,0.007512732415815,0.004645285910097,0.006482109775566,0.001419157868264,0.001257169771767,0.001552634584137,5.64411483516334E-05,2.15786811865434E-05,4.20177471424929E-05
